time,seconds_elapsed,z,y,x
1760555091947393800,0.061393798828125,-0.99139404296875,-0.010772705078125,0.02825927734375
1760555091957398800,0.071398681640625,-0.9738006591796875,-0.0223236083984375,0.0351409912109375
1760555091967402800,0.08140283203125,-1.0006256103515625,-0.01837158203125,0.0080108642578125
1760555091977406700,0.09140673828125,-1.002716064453125,-0.013916015625,-0.00140380859375
1760555091987411700,0.10141162109375,-1.02398681640625,-0.0162506103515625,-0.0184326171875
1760555091997415700,0.111415771484375,-1.0094757080078125,-0.018524169921875,-0.0083770751953125
1760555092007420000,0.121419921875,-0.974700927734375,-0.0214996337890625,0.0272216796875
1760555092017425000,0.1314248046875,-0.99322509765625,-0.0234527587890625,0.0099639892578125
1760555092027428900,0.141428955078125,-1.026275634765625,-0.0167694091796875,-0.0107421875
1760555092037432800,0.151432861328125,-0.9853363037109375,-0.0182952880859375,0.021575927734375
1760555092047438000,0.16143798828125,-0.9824676513671875,-0.0236968994140625,0.0258636474609375
1760555092057442000,0.171442138671875,-1.012542724609375,-0.0217132568359375,-0.001434326171875
1760555092067447000,0.181447021484375,-0.9982452392578125,-0.023712158203125,0.0063018798828125
1760555092077451000,0.191450927734375,-0.9794464111328125,-0.02532958984375,0.025177001953125
1760555092087455000,0.201455078125,-1.0016632080078125,-0.024749755859375,-0.001800537109375
1760555092097460000,0.2114599609375,-1.0094146728515625,-0.02423095703125,-0.015045166015625
1760555092107464200,0.221464111328125,-0.9805755615234375,-0.0320892333984375,0.00518798828125
1760555092117468200,0.23146826171875,-1.0007476806640625,-0.0239410400390625,-0.0071258544921875
1760555092127473200,0.24147314453125,-1.0138092041015625,-0.011962890625,-0.010467529296875
1760555092137477000,0.25147705078125,-0.9906768798828125,-0.010894775390625,0.0113983154296875
1760555092147481000,0.261481201171875,-1.0028533935546875,-0.011993408203125,0.0010223388671875
1760555092157486000,0.271486083984375,-1.0042877197265625,-0.021728515625,-0.001861572265625
1760555092167490000,0.281489990234375,-0.9875640869140625,-0.0229339599609375,0.0105133056640625
1760555092177494000,0.291493896484375,-1.003662109375,-0.0225830078125,-0.005157470703125
1760555092187499000,0.3014990234375,-1.002471923828125,-0.022552490234375,-0.0060882568359375
1760555092197503000,0.3115029296875,-0.9881744384765625,-0.0225982666015625,0.01171875
1760555092207508000,0.321508056640625,-1.002532958984375,-0.018280029296875,0.00830078125
1760555092217512200,0.33151220703125,-1.00250244140625,-0.0140228271484375,0.007293701171875
1760555092227516200,0.34151611328125,-0.995269775390625,-0.0111846923828125,0.012451171875
1760555092237521200,0.351521240234375,-1.00634765625,-0.014862060546875,-0.001800537109375
1760555092247524900,0.36152490234375,-1.00042724609375,-0.016632080078125,-0.0045318603515625
1760555092257529000,0.371529052734375,-0.9935760498046875,-0.0185089111328125,0.0043182373046875
1760555092267534000,0.3815341796875,-1.00341796875,-0.0194854736328125,-0.0003509521484375
1760555092277538000,0.3915380859375,-0.996856689453125,-0.0222625732421875,0.0034332275390625
1760555092287543000,0.40154296875,-0.996368408203125,-0.01708984375,0.0072174072265625
1760555092297547000,0.411547119140625,-1.0050506591796875,-0.0154876708984375,0.001007080078125
1760555092307551200,0.42155126953125,-0.9983062744140625,-0.0132904052734375,-0.0002899169921875
1760555092317556200,0.43155615234375,-0.996612548828125,-0.02130126953125,-0.0002288818359375
1760555092327560000,0.441559814453125,-0.9973297119140625,-0.0214996337890625,-0.003692626953125
1760555092337564000,0.45156396484375,-0.9970855712890625,-0.0226593017578125,-0.0074310302734375
1760555092347569000,0.46156884765625,-0.9982452392578125,-0.026031494140625,-0.00592041015625
1760555092357573000,0.471572998046875,-0.9983978271484375,-0.0215606689453125,-0.000946044921875
1760555092367577000,0.4815771484375,-0.9990081787109375,-0.018707275390625,0.00445556640625
1760555092377582000,0.49158203125,-0.9968109130859375,-0.0216522216796875,0.011260986328125
1760555092387586000,0.5015859375,-0.99755859375,-0.01544189453125,0.012115478515625
1760555092397591000,0.511591064453125,-0.9997100830078125,-0.0165557861328125,0.0066680908203125
1760555092407595300,0.52159521484375,-0.9972076416015625,-0.0229339599609375,0.0042266845703125
1760555092417599000,0.531598876953125,-0.9966278076171875,-0.020294189453125,0.004425048828125
1760555092427604000,0.54160400390625,-0.996978759765625,-0.0216827392578125,0.003204345703125
1760555092437608000,0.55160791015625,-0.9976806640625,-0.0190582275390625,0.005096435546875
1760555092447612200,0.561612060546875,-0.9970245361328125,-0.018310546875,0.005035400390625
1760555092457617200,0.5716171875,-0.9957733154296875,-0.021392822265625,-0.000701904296875
1760555092467621000,0.58162109375,-0.9990386962890625,-0.0201416015625,-0.000244140625
1760555092477626000,0.591626220703125,-1.0009918212890625,-0.0194549560546875,0.0002899169921875
1760555092487630000,0.601630126953125,-0.9996490478515625,-0.0199737548828125,0.004302978515625
1760555092497634000,0.611634033203125,-0.9987640380859375,-0.01544189453125,0.0055694580078125
1760555092507639300,0.621639404296875,-1.00054931640625,-0.0162353515625,0.007568359375
1760555092517643000,0.63164306640625,-0.997894287109375,-0.0190582275390625,0.0086669921875
1760555092527647000,0.64164697265625,-0.99896240234375,-0.0156707763671875,0.00775146484375
1760555092537652000,0.65165185546875,-1.0006866455078125,-0.014373779296875,0.0025787353515625
1760555092547656000,0.661656005859375,-1.0000457763671875,-0.017547607421875,-0.0064239501953125
1760555092557660200,0.67166015625,-0.998626708984375,-0.022979736328125,-0.0037994384765625
1760555092567665200,0.6816650390625,-0.9971923828125,-0.0215911865234375,0.005828857421875
1760555092577669000,0.691669189453125,-0.996734619140625,-0.019775390625,0.00775146484375
1760555092587674000,0.701674072265625,-0.99652099609375,-0.021240234375,0.0122528076171875
1760555092597677800,0.711677734375,-0.9982452392578125,-0.0209808349609375,0.0078277587890625
1760555092607682000,0.72168212890625,-1.001190185546875,-0.0229949951171875,-0.00054931640625
1760555092617687000,0.73168701171875,-0.9990997314453125,-0.0232696533203125,-0.0013580322265625
1760555092627691000,0.74169091796875,-0.997161865234375,-0.021453857421875,-0.00201416015625
1760555092637695000,0.751695068359375,-1.000030517578125,-0.0230560302734375,0.00030517578125
1760555092647700000,0.761699951171875,-1.00054931640625,-0.0148773193359375,0.00439453125
1760555092657704200,0.7717041015625,-1.002166748046875,-0.0085906982421875,0.00921630859375
1760555092667709200,0.781709228515625,-0.9948883056640625,-0.025634765625,0.0133514404296875
1760555092677713200,0.791713134765625,-0.990325927734375,-0.033050537109375,0.007110595703125
1760555092687716900,0.801716796875,-0.9952850341796875,-0.037109375,0.0070648193359375
1760555092697721900,0.811721923828125,-0.9885101318359375,-0.033721923828125,0.0074462890625
1760555092707726000,0.82172607421875,-0.996429443359375,-0.030242919921875,0.0000457763671875
1760555092717730000,0.83172998046875,-0.9979095458984375,-0.0230255126953125,0.00469970703125
1760555092727735000,0.841735107421875,-0.9936676025390625,-0.023681640625,0.01312255859375
1760555092737739000,0.851739013671875,-1.0026702880859375,-0.01470947265625,0.007904052734375
1760555092747743200,0.8617431640625,-1.00506591796875,-0.0061798095703125,0.005584716796875
1760555092757748200,0.871748291015625,-1.0013275146484375,-0.0134429931640625,0.0051727294921875
1760555092767752200,0.881752197265625,-1.00048828125,-0.0207061767578125,-0.0044097900390625
1760555092777757200,0.891757080078125,-0.998199462890625,-0.0185089111328125,-0.0016021728515625
1760555092787761000,0.901760986328125,-0.99603271484375,-0.02337646484375,0.0020751953125
1760555092797765000,0.91176513671875,-1.0013275146484375,-0.018310546875,0.001556396484375
1760555092807770000,0.92177001953125,-0.99755859375,-0.018280029296875,0.0031890869140625
1760555092817774000,0.931774169921875,-0.9993896484375,-0.0225677490234375,0.0046844482421875
1760555092827778000,0.941778076171875,-0.99755859375,-0.0229339599609375,0.010345458984375
1760555092837783000,0.951782958984375,-0.99615478515625,-0.023162841796875,0.009918212890625
1760555092847787300,0.961787353515625,-0.99822998046875,-0.0231170654296875,0.0040740966796875
1760555092857792300,0.971792236328125,-0.996490478515625,-0.0255279541015625,0.003570556640625
1760555092867796000,0.9817958984375,-1.0001983642578125,-0.017730712890625,0.0030059814453125
1760555092877800000,0.991800048828125,-0.999053955078125,-0.018280029296875,0.0042572021484375
1760555092887805000,1.001804931640625,-0.9949493408203125,-0.0211944580078125,0.0070648193359375
1760555092897809200,1.01180908203125,-0.99853515625,-0.022796630859375,0.0018768310546875
1760555092907813000,1.021813232421875,-0.9957122802734375,-0.029144287109375,0.0015411376953125
1760555092917818000,1.031818115234375,-0.9973602294921875,-0.0251007080078125,-0.002044677734375
1760555092927822000,1.041822021484375,-1.00274658203125,-0.017364501953125,-0.0059356689453125
1760555092937826000,1.051825927734375,-0.9971466064453125,-0.0236663818359375,-0.00140380859375
1760555092947831000,1.0618310546875,-0.997161865234375,-0.02691650390625,0.0006103515625
1760555092957835000,1.0718349609375,-0.9996795654296875,-0.0200347900390625,0.0145721435546875
1760555092967840000,1.081840087890625,-0.99822998046875,-0.0147857666015625,0.0161895751953125
1760555092977844000,1.091843994140625,-1.0015716552734375,-0.0194244384765625,0.0093841552734375
1760555092987848000,1.101847900390625,-0.99774169921875,-0.02105712890625,0.0074920654296875
1760555092997853000,1.11185302734375,-0.9969635009765625,-0.0262451171875,0.003082275390625
1760555093007857200,1.121857177734375,-1.0001983642578125,-0.0247344970703125,-0.0032196044921875
1760555093017861000,1.131861083984375,-0.9979705810546875,-0.022369384765625,-0.0002288818359375
1760555093027866000,1.1418662109375,-0.9976348876953125,-0.02545166015625,-0.000518798828125
1760555093037870000,1.1518701171875,-0.9980010986328125,-0.02423095703125,0.000274658203125
1760555093047876000,1.1618759765625,-0.995391845703125,-0.0228729248046875,0.005828857421875
1760555093057880000,1.171880126953125,-0.99658203125,-0.0218048095703125,0.013671875
1760555093067884000,1.181884033203125,-0.9979400634765625,-0.012298583984375,0.0197906494140625
1760555093077889000,1.191888916015625,-0.9991912841796875,-0.013580322265625,0.0189971923828125
1760555093087893000,1.20189306640625,-1.00238037109375,-0.013641357421875,0.01739501953125
1760555093097897000,1.21189697265625,-0.9978485107421875,-0.0088958740234375,0.0233154296875
1760555093107902000,1.22190185546875,-1.0031280517578125,-0.01080322265625,0.0200347900390625
1760555093117906200,1.23190625,-1.0008697509765625,-0.0154571533203125,0.010406494140625
1760555093127911200,1.2419111328125,-0.994110107421875,-0.02325439453125,0.01068115234375
1760555093137915100,1.2519150390625,-0.999908447265625,-0.0209197998046875,0.0020751953125
1760555093147919000,1.261919189453125,-1.0009918212890625,-0.0234375,0.0006256103515625
1760555093157924000,1.271924072265625,-0.998046875,-0.020843505859375,0.001708984375
1760555093167928000,1.281927978515625,-0.999725341796875,-0.0167083740234375,-0.000823974609375
1760555093177932000,1.29193212890625,-0.9953155517578125,-0.0247039794921875,0.0035858154296875
1760555093187937000,1.30193701171875,-0.995452880859375,-0.026123046875,0.0050506591796875
1760555093197941000,1.31194091796875,-0.997772216796875,-0.02178955078125,0.0110626220703125
1760555093207945200,1.3219453125,-0.99456787109375,-0.0180511474609375,0.0219573974609375
1760555093217950200,1.3319501953125,-0.9999237060546875,-0.0123291015625,0.0185089111328125
1760555093227954200,1.3419541015625,-1.004486083984375,-0.0104827880859375,0.0104217529296875
1760555093237959200,1.351959228515625,-0.9982452392578125,-0.0166168212890625,0.009429931640625
1760555093247963000,1.361962890625,-0.9999542236328125,-0.0214996337890625,0.001983642578125
1760555093257967000,1.371967041015625,-1.002227783203125,-0.0172882080078125,-0.0011138916015625
1760555093267972000,1.38197216796875,-1.0014801025390625,-0.0162811279296875,-0.00433349609375
1760555093277976000,1.39197607421875,-1.0013427734375,-0.0216522216796875,-0.009613037109375
1760555093287980000,1.40197998046875,-0.994232177734375,-0.0277099609375,-0.0050506591796875
1760555093297985000,1.411985107421875,-0.9978179931640625,-0.0244903564453125,-0.0052337646484375
1760555093307989200,1.4219892578125,-0.996337890625,-0.025787353515625,0.00189208984375
1760555093317994200,1.431994140625,-0.988525390625,-0.0321197509765625,0.017669677734375
1760555093327998200,1.441998291015625,-0.99713134765625,-0.0242767333984375,0.0184783935546875
1760555093338002000,1.452001953125,-1.0007476806640625,-0.0170440673828125,0.0163116455078125
1760555093348007000,1.4620068359375,-0.9954376220703125,-0.016845703125,0.0140533447265625
1760555093358011000,1.472010986328125,-1.0046539306640625,-0.01470947265625,-0.002410888671875
1760555093368015000,1.48201513671875,-1.001068115234375,-0.015045166015625,-0.0013580322265625
1760555093378020000,1.49202001953125,-0.9952239990234375,-0.016326904296875,0.002960205078125
1760555093388024000,1.502024169921875,-1.0048828125,-0.0213775634765625,-0.0045013427734375
1760555093398029000,1.512029052734375,-0.9967498779296875,-0.0207977294921875,-0.0012969970703125
1760555093408033000,1.522032958984375,-0.9982147216796875,-0.027099609375,-0.00653076171875
1760555093418037200,1.532037353515625,-0.997100830078125,-0.0318756103515625,-0.0037841796875
1760555093428042200,1.542042236328125,-0.9888458251953125,-0.0321807861328125,0.0072784423828125
1760555093438046000,1.5520458984375,-0.999176025390625,-0.02142333984375,-0.000244140625
1760555093448050000,1.5620498046875,-0.999359130859375,-0.021148681640625,0.0028839111328125
1760555093458055000,1.572054931640625,-0.9940338134765625,-0.0204925537109375,0.0089111328125
1760555093468059100,1.58205908203125,-1.00030517578125,-0.0180511474609375,0.0003814697265625
1760555093478064000,1.592064208984375,-0.998504638671875,-0.0225677490234375,-0.0000762939453125
1760555093488068000,1.602068115234375,-0.997802734375,-0.0229034423828125,-0.00250244140625
1760555093498072000,1.612072021484375,-1.0015411376953125,-0.01800537109375,-0.0017547607421875
1760555093508077000,1.6220771484375,-1.0003814697265625,-0.0122528076171875,0.00341796875
1760555093518081000,1.6320810546875,-1.00238037109375,-0.01220703125,0.0062103271484375
1760555093528085000,1.6420849609375,-1.0004425048828125,-0.0171051025390625,0.0053558349609375
1760555093538090000,1.652090087890625,-0.998077392578125,-0.018341064453125,0.000946044921875
1760555093548094000,1.662093994140625,-0.9989471435546875,-0.0212249755859375,-0.0035400390625
1760555093558099000,1.672098876953125,-0.9912261962890625,-0.030548095703125,-0.0102386474609375
1760555093568103200,1.682103271484375,-0.993377685546875,-0.04180908203125,-0.011474609375
1760555093578107100,1.692107177734375,-0.9921722412109375,-0.0382080078125,0.0027618408203125
1760555093588112100,1.702112060546875,-0.9950408935546875,-0.025665283203125,0.01373291015625
1760555093598116000,1.7121162109375,-1.0002899169921875,-0.02032470703125,0.007598876953125
1760555093608120000,1.7221201171875,-0.9998779296875,-0.01580810546875,0.009033203125
1760555093618125000,1.732125,-1.0024566650390625,-0.0085906982421875,0.008819580078125
1760555093628129000,1.74212890625,-1.000762939453125,-0.01318359375,0.0077667236328125
1760555093638134000,1.752134033203125,-0.994384765625,-0.0203094482421875,0.0029449462890625
1760555093648138000,1.762137939453125,-0.998992919921875,-0.02191162109375,-0.00714111328125
1760555093658142200,1.77214208984375,-0.997467041015625,-0.02545166015625,-0.00372314453125
1760555093668147200,1.782147216796875,-0.995025634765625,-0.0221405029296875,-0.0032196044921875
1760555093678151200,1.792151123046875,-1.004638671875,-0.0135955810546875,-0.0061798095703125
1760555093688155100,1.802155029296875,-1.00091552734375,-0.0116119384765625,0.0039825439453125
1760555093698160000,1.81216015625,-0.99554443359375,-0.016815185546875,0.0064697265625
1760555093708164000,1.8221640625,-0.9971923828125,-0.02630615234375,0.0042266845703125
1760555093718168000,1.83216796875,-0.993896484375,-0.027374267578125,-0.0000457763671875
1760555093728173000,1.842173095703125,-0.9947357177734375,-0.030303955078125,-0.0105743408203125
1760555093738177000,1.852177001953125,-0.99090576171875,-0.0424652099609375,-0.004730224609375
1760555093748182000,1.86218212890625,-0.9907684326171875,-0.03045654296875,-0.0069122314453125
1760555093758186000,1.87218603515625,-1.001312255859375,-0.0266265869140625,-0.0108795166015625
1760555093768190200,1.882190185546875,-0.993438720703125,-0.0193328857421875,-0.003326416015625
1760555093778195200,1.8921953125,-0.9988555908203125,-0.01007080078125,-0.0109405517578125
1760555093788199000,1.902198974609375,-0.9960784912109375,-0.02252197265625,-0.017578125
1760555093798203000,1.912202880859375,-0.9885711669921875,-0.0319976806640625,-0.0135040283203125
1760555093808208000,1.922207763671875,-1.0056610107421875,-0.014129638671875,-0.0185394287109375
1760555093818212000,1.932212158203125,-1.0046844482421875,-0.0048675537109375,-0.0151214599609375
1760555093828217000,1.942217041015625,-1.00677490234375,0.0059356689453125,-0.004486083984375
1760555093838221000,1.952220947265625,-1.0056915283203125,0.00628662109375,0.0029449462890625
1760555093848225000,1.96222509765625,-1.0042572021484375,0.0051116943359375,0.004669189453125
1760555093858230000,1.97222998046875,-1.0055389404296875,0.004852294921875,-0.0017852783203125
1760555093868234200,1.982234130859375,-0.99786376953125,-0.0078125,-0.0063018798828125
1760555093878238000,1.992238037109375,-0.9890594482421875,-0.026702880859375,-0.008453369140625
1760555093888243000,2.002242919921875,-0.9976043701171875,-0.0186309814453125,-0.016571044921875
1760555093898247000,2.012246826171875,-1.0027313232421875,-0.0072479248046875,-0.0272369384765625
1760555093908252000,2.022251953125,-1.0001373291015625,-0.0037078857421875,-0.0264739990234375
1760555093918256000,2.032256103515625,-1.00091552734375,0.00244140625,-0.021453857421875
1760555093928260000,2.042260009765625,-1.000701904296875,-0.001434326171875,-0.0208892822265625
1760555093938265000,2.05226513671875,-1.0018463134765625,-0.002044677734375,-0.020355224609375
1760555093948269000,2.06226904296875,-1.002471923828125,-0.0050201416015625,-0.01617431640625
1760555093958273300,2.072273193359375,-0.9958648681640625,-0.0132904052734375,-0.0171051025390625
1760555093968278300,2.0822783203125,-0.9971160888671875,-0.012451171875,-0.0142669677734375
1760555093978282000,2.092281982421875,-1.0030364990234375,-0.002655029296875,-0.0079498291015625
1760555093988287000,2.102286865234375,-1.005279541015625,0.0059356689453125,0.0018768310546875
1760555093998291000,2.112291015625,-1.00189208984375,0.0072021484375,0.002777099609375
1760555094008295200,2.122295166015625,-1.0006256103515625,0.000518798828125,-0.0084228515625
1760555094018300200,2.132300048828125,-1.0022430419921875,-0.003143310546875,-0.01470947265625
1760555094028304100,2.14230419921875,-0.996734619140625,-0.00860595703125,-0.00909423828125
1760555094038308000,2.15230810546875,-0.9952545166015625,-0.014129638671875,-0.0059661865234375
1760555094048312000,2.16231201171875,-0.9953460693359375,-0.0164794921875,-0.0099639892578125
1760555094058316300,2.17231640625,-0.992462158203125,-0.02410888671875,-0.0106048583984375
1760555094068321300,2.1823212890625,-0.9928131103515625,-0.0210418701171875,-0.009368896484375
1760555094078325200,2.1923251953125,-0.998931884765625,-0.010650634765625,-0.0124053955078125
1760555094088329000,2.202328857421875,-1.0025787353515625,-0.0018463134765625,-0.015594482421875
1760555094098334000,2.212333984375,-1.001434326171875,-0.00396728515625,-0.01348876953125
1760555094108338200,2.222338134765625,-0.999542236328125,-0.0064849853515625,-0.01177978515625
1760555094118342100,2.232342041015625,-1.002349853515625,-0.001617431640625,-0.0099029541015625
1760555094128347100,2.24234716796875,-0.999969482421875,-0.001953125,-0.000091552734375
1760555094138351000,2.25235107421875,-0.9999237060546875,-0.00042724609375,0.01092529296875
1760555094148356000,2.262356201171875,-1.0016326904296875,-0.002593994140625,0.0060272216796875
1760555094158360300,2.2723603515625,-1.0030517578125,-0.005645751953125,-0.0081939697265625
1760555094168364300,2.2823642578125,-1.000396728515625,-0.0073394775390625,-0.0145721435546875
1760555094178369300,2.292369384765625,-0.9993896484375,-0.010406494140625,-0.0137786865234375
1760555094188373000,2.302373046875,-0.9990234375,-0.0129852294921875,-0.007171630859375
1760555094198377200,2.312377197265625,-0.9911651611328125,-0.02276611328125,0.0017242431640625
1760555094208382200,2.32238232421875,-0.987274169921875,-0.0304107666015625,0.00457763671875
1760555094218386200,2.33238623046875,-0.98797607421875,-0.0408477783203125,0.0022430419921875
1760555094228391200,2.34239111328125,-0.99688720703125,-0.025146484375,-0.0028839111328125
1760555094238395100,2.35239501953125,-0.9973602294921875,-0.0103912353515625,0.00091552734375
1760555094248399400,2.3623994140625,-0.998931884765625,-0.0089569091796875,-0.002655029296875
1760555094258404400,2.372404296875,-1.0059661865234375,0.00079345703125,-0.0059967041015625
1760555094268408300,2.382408203125,-1.0011138916015625,0.0009613037109375,0.0020599365234375
1760555094278412000,2.392412109375,-0.9967193603515625,-0.0046234130859375,0.0023956298828125
1760555094288417000,2.4024169921875,-1.0000152587890625,-0.014129638671875,-0.01275634765625
1760555094298421200,2.412421142578125,-0.998687744140625,-0.0143890380859375,-0.01763916015625
1760555094308426200,2.42242626953125,-0.9980621337890625,-0.0106964111328125,-0.01092529296875
1760555094318430200,2.43243017578125,-0.999786376953125,-0.008697509765625,-0.005859375
1760555094328434200,2.44243408203125,-1.0021209716796875,-0.0035858154296875,-0.0052490234375
1760555094338439200,2.452439208984375,-0.99993896484375,-0.005706787109375,-0.0031585693359375
1760555094348443400,2.462443359375,-0.997833251953125,-0.0121002197265625,-0.0044708251953125
1760555094358447000,2.472447021484375,-0.9962005615234375,-0.0139617919921875,-0.0119476318359375
1760555094368452000,2.4824521484375,-0.9923248291015625,-0.025787353515625,-0.0072479248046875
1760555094378456000,2.4924560546875,-0.993133544921875,-0.022064208984375,-0.0036773681640625
1760555094388461000,2.5024609375,-0.9998016357421875,-0.009521484375,-0.0048828125
1760555094398465300,2.51246533203125,-1.002197265625,-0.0058135986328125,-0.0058441162109375
1760555094408469200,2.52246923828125,-0.99945068359375,-0.004608154296875,-0.003021240234375
1760555094418474200,2.53247412109375,-1.0009002685546875,-0.00775146484375,-0.00787353515625
1760555094428478200,2.542478271484375,-1.00311279296875,0.002838134765625,-0.017547607421875
1760555094438482200,2.552482177734375,-1.0008697509765625,-0.0037841796875,-0.0126495361328125
1760555094448487200,2.562487060546875,-0.9959259033203125,-0.008056640625,-0.0059967041015625
1760555094458491100,2.5724912109375,-0.998199462890625,-0.005523681640625,-0.0095672607421875
1760555094468496100,2.58249609375,-1.0009918212890625,-0.003326416015625,-0.012420654296875
1760555094478500000,2.5925,-1.0025787353515625,-0.0015411376953125,-0.0037841796875
1760555094488504000,2.602504150390625,-0.9999847412109375,-0.0035247802734375,-0.001678466796875
1760555094498509000,2.612509033203125,-0.9975738525390625,-0.01031494140625,-0.0051422119140625
1760555094508513300,2.62251318359375,-0.999725341796875,-0.0105438232421875,-0.0092010498046875
1760555094518517200,2.632517333984375,-0.997314453125,-0.01251220703125,-0.005279541015625
1760555094528522200,2.642522216796875,-0.99285888671875,-0.020843505859375,-0.0041046142578125
1760555094538526200,2.652526123046875,-0.996185302734375,-0.018951416015625,-0.0117950439453125
1760555094548531200,2.66253125,-0.999420166015625,-0.012298583984375,-0.01068115234375
1760555094558535200,2.67253515625,-0.9977264404296875,-0.005645751953125,-0.0037994384765625
1760555094568539100,2.6825390625,-1.00103759765625,-0.00531005859375,-0.00738525390625
1760555094578544000,2.692544189453125,-1.00439453125,-0.00054931640625,-0.00885009765625
1760555094588548000,2.702548095703125,-1.0007781982421875,0.001251220703125,-0.0044097900390625
1760555094598552300,2.71255224609375,-1.000274658203125,-0.0032196044921875,0.0065460205078125
1760555094608557300,2.722557373046875,-1.0001678466796875,-0.003875732421875,-0.00164794921875
1760555094618561300,2.732561279296875,-0.9969482421875,-0.01092529296875,-0.0066680908203125
1760555094628566300,2.742566162109375,-0.9963531494140625,-0.0164031982421875,-0.0060882568359375
1760555094638570000,2.752570068359375,-1.0026092529296875,-0.00665283203125,-0.0080718994140625
1760555094648574200,2.76257421875,-1.0032806396484375,-0.0021820068359375,-0.00909423828125
1760555094658579200,2.7725791015625,-0.9994049072265625,-0.0072174072265625,-0.00799560546875
1760555094668583200,2.782583251953125,-0.9967803955078125,-0.0147705078125,-0.009796142578125
1760555094678588200,2.792588134765625,-0.9951934814453125,-0.0178070068359375,-0.0086669921875
1760555094688592100,2.802592041015625,-0.9920806884765625,-0.0281524658203125,-0.0045623779296875
1760555094698596400,2.812596435546875,-0.99810791015625,-0.0188751220703125,-0.008392333984375
1760555094708601300,2.822601318359375,-1.002105712890625,-0.006805419921875,-0.0054779052734375
1760555094718605300,2.832605224609375,-0.9992828369140625,-0.006103515625,-0.000213623046875
1760555094728609000,2.842609130859375,-1.001953125,-0.007171630859375,-0.005950927734375
1760555094738614000,2.852614013671875,-1.0041656494140625,-0.0037841796875,-0.0095062255859375
1760555094748618200,2.8626181640625,-1.0009918212890625,-0.0069427490234375,-0.002532958984375
1760555094758623200,2.872623291015625,-0.9970550537109375,-0.017578125,-0.007568359375
1760555094768627200,2.882627197265625,-0.999725341796875,-0.015533447265625,-0.0112762451171875
1760555094778631200,2.892631103515625,-0.995452880859375,-0.0143280029296875,-0.0065460205078125
1760555094788636200,2.90263623046875,-0.9949798583984375,-0.0240020751953125,-0.0094146728515625
1760555094798640000,2.91264013671875,-0.9918060302734375,-0.029998779296875,-0.005767822265625
1760555094808644400,2.922644287109375,-0.994232177734375,-0.0271148681640625,-0.002471923828125
1760555094818649300,2.9326494140625,-0.998504638671875,-0.0183258056640625,-0.0093841552734375
1760555094828653000,2.942653076171875,-0.999053955078125,-0.01348876953125,-0.0100250244140625
1760555094838658000,2.952657958984375,-1.00299072265625,-0.0087432861328125,-0.0116424560546875
1760555094848662000,2.962662109375,-0.997528076171875,-0.018798828125,-0.0043182373046875
1760555094858666200,2.972666259765625,-0.995880126953125,-0.0183563232421875,-0.00262451171875
1760555094868671200,2.982671142578125,-1.002655029296875,-0.0122833251953125,0.00079345703125
1760555094878675200,2.99267529296875,-1.0002288818359375,-0.0079345703125,0.00042724609375
1760555094888679200,3.00267919921875,-0.99969482421875,-0.0164031982421875,0.001983642578125
1760555094898684200,3.01268408203125,-0.9930267333984375,-0.0218505859375,0.003173828125
1760555094908688400,3.0226884765625,-0.9956512451171875,-0.02490234375,-0.012420654296875
1760555094918693400,3.032693359375,-0.991241455078125,-0.039215087890625,-0.0185699462890625
1760555094928697000,3.042697021484375,-0.987640380859375,-0.037078857421875,-0.0153350830078125
1760555094938701000,3.052701171875,-0.996856689453125,-0.0303497314453125,-0.014404296875
1760555094948706000,3.0627060546875,-0.9954071044921875,-0.024169921875,-0.009429931640625
1760555094958710300,3.072710205078125,-1.0010223388671875,-0.015594482421875,-0.0052337646484375
1760555094968714200,3.08271435546875,-0.9991455078125,-0.011138916015625,0.0003204345703125
1760555094978719200,3.09271923828125,-0.995697021484375,-0.0166473388671875,0.0018463134765625
1760555094988723200,3.10272314453125,-0.9990081787109375,-0.0141754150390625,-0.00091552734375
1760555094998728200,3.112728271484375,-0.9980621337890625,-0.010986328125,-0.0001220703125
1760555095008732200,3.122732177734375,-1.0016632080078125,-0.0164642333984375,-0.0067138671875
1760555095018736000,3.132736083984375,-0.9987640380859375,-0.0135650634765625,-0.0087738037109375
1760555095028741000,3.1427412109375,-0.99810791015625,-0.0146636962890625,-0.0014495849609375
1760555095038745000,3.1527451171875,-1.0015106201171875,-0.0136260986328125,-0.004547119140625
1760555095048749600,3.16274951171875,-1.0004730224609375,-0.0128326416015625,-0.0061187744140625
1760555095058753500,3.17275341796875,-0.996856689453125,-0.015411376953125,-0.0077667236328125
1760555095068757500,3.182757568359375,-0.996826171875,-0.0189666748046875,-0.0107879638671875
1760555095078762500,3.192762451171875,-0.9991912841796875,-0.0201568603515625,-0.016632080078125
1760555095088766500,3.202766357421875,-0.9962921142578125,-0.01959228515625,-0.0047454833984375
1760555095098770400,3.2127705078125,-0.998565673828125,-0.01287841796875,0.0012359619140625
1760555095108775400,3.222775390625,-1.000335693359375,-0.012420654296875,0.00244140625
1760555095118779400,3.232779296875,-0.99627685546875,-0.0130615234375,0.0112457275390625
1760555095128784400,3.242784423828125,-1.0003662109375,-0.0074615478515625,0.008819580078125
1760555095138788400,3.252788330078125,-1.0014190673828125,-0.0054473876953125,0.001739501953125
1760555095148792600,3.26279248046875,-0.9960784912109375,-0.0197906494140625,0.0009765625
1760555095158797600,3.272797607421875,-0.9962310791015625,-0.0213165283203125,-0.003204345703125
1760555095168801500,3.282801513671875,-0.9951019287109375,-0.0190277099609375,-0.006561279296875
1760555095178805500,3.292805419921875,-0.9994659423828125,-0.0150909423828125,-0.0101318359375
1760555095188810500,3.302810546875,-0.99676513671875,-0.017791748046875,-0.0084075927734375
1760555095198814500,3.312814453125,-0.9972686767578125,-0.0173492431640625,-0.0015716552734375
1760555095208819500,3.3228193359375,-1.0036773681640625,-0.0055694580078125,0.0033721923828125
1760555095218823400,3.332823486328125,-1.0027618408203125,-0.000732421875,0.00909423828125
1760555095228827400,3.342827392578125,-1.0012359619140625,-0.0019683837890625,0.0055389404296875
1760555095238832400,3.352832275390625,-1.004638671875,-0.0045166015625,-0.005859375
1760555095248836600,3.362836669921875,-0.9979705810546875,-0.0071563720703125,-0.006195068359375
1760555095258840600,3.372840576171875,-0.997955322265625,-0.013946533203125,-0.015838623046875
1760555095268845600,3.382845458984375,-0.9940338134765625,-0.0253448486328125,-0.016937255859375
1760555095278849300,3.392849365234375,-0.9921112060546875,-0.0251922607421875,-0.0136871337890625
1760555095288854300,3.402854248046875,-1.0006256103515625,-0.0191192626953125,-0.0118255615234375
1760555095298858500,3.4128583984375,-0.9981842041015625,-0.0158538818359375,-0.006072998046875
1760555095308862500,3.422862548828125,-0.9975433349609375,-0.0174102783203125,-0.0050048828125
1760555095318867500,3.432867431640625,-1.000213623046875,-0.0163726806640625,-0.00408935546875
1760555095328871400,3.442871337890625,-0.99755859375,-0.0118865966796875,-0.0013885498046875
1760555095338876400,3.45287646484375,-0.9980316162109375,-0.0132293701171875,-0.001495361328125
1760555095348880600,3.462880615234375,-0.9977874755859375,-0.0119781494140625,0.00006103515625
1760555095358884600,3.472884521484375,-0.9972076416015625,-0.0160980224609375,-0.004241943359375
1760555095368889600,3.4828896484375,-0.99493408203125,-0.022003173828125,-0.0045928955078125
1760555095378893300,3.492893310546875,-0.9960174560546875,-0.0161895751953125,-0.000213623046875
1760555095388897500,3.5028974609375,-1.002044677734375,-0.0093841552734375,-0.0037078857421875
1760555095398902500,3.512902587890625,-0.9994964599609375,-0.0131378173828125,-0.0012664794921875
1760555095408906500,3.522906494140625,-0.995635986328125,-0.014923095703125,-0.0021514892578125
1760555095418911500,3.532911376953125,-0.9990997314453125,-0.0137481689453125,-0.0046844482421875
1760555095428915500,3.54291552734375,-0.9980010986328125,-0.0174713134765625,-0.0035858154296875
1760555095438919400,3.55291943359375,-0.9980621337890625,-0.017059326171875,-0.004608154296875
1760555095448924400,3.56292431640625,-0.9973907470703125,-0.0156402587890625,-0.002349853515625
1760555095458928600,3.5729287109375,-0.9973602294921875,-0.0153656005859375,-0.001251220703125
1760555095468932400,3.582932373046875,-0.999237060546875,-0.0161590576171875,-0.0035400390625
1760555095478937300,3.592937255859375,-0.9988861083984375,-0.0111083984375,0.00201416015625
1760555095488941300,3.60294140625,-1.001068115234375,-0.0079803466796875,0.0062103271484375
1760555095498946300,3.6129462890625,-0.9981536865234375,-0.01263427734375,0.0074310302734375
1760555095508950500,3.622950439453125,-0.99932861328125,-0.013275146484375,0.0009307861328125
1760555095518954500,3.63295458984375,-0.9992523193359375,-0.0110931396484375,-0.002349853515625
1760555095528959500,3.64295947265625,-0.998748779296875,-0.0157470703125,-0.0070648193359375
1760555095538963500,3.65296337890625,-1.0035247802734375,-0.00994873046875,-0.010406494140625
1760555095548968400,3.662968505859375,-0.9997711181640625,-0.0057373046875,-0.0045623779296875
1760555095558972700,3.67297265625,-0.9985198974609375,-0.017364501953125,-0.0006103515625
1760555095568976400,3.682976318359375,-0.9988861083984375,-0.01580810546875,0.000885009765625
1760555095578981400,3.6929814453125,-0.9951629638671875,-0.0154266357421875,0.0041656494140625
1760555095588985300,3.7029853515625,-1.0004119873046875,-0.013671875,0.00372314453125
1760555095598989600,3.712989501953125,-0.99652099609375,-0.01336669921875,0.0013885498046875
1760555095608994600,3.72299462890625,-0.9983978271484375,-0.016204833984375,-0.0043182373046875
1760555095618998500,3.73299853515625,-0.99700927734375,-0.0180206298828125,-0.005218505859375
1760555095629003500,3.74300341796875,-0.9954986572265625,-0.017547607421875,-0.0043792724609375
1760555095639007500,3.753007568359375,-0.9969635009765625,-0.0194244384765625,-0.008209228515625
1760555095649011500,3.763011474609375,-0.9980010986328125,-0.0173187255859375,-0.00537109375
1760555095659016400,3.773016357421875,-1.0000762939453125,-0.012664794921875,-0.0043487548828125
1760555095669020400,3.7830205078125,-0.999420166015625,-0.01239013671875,-0.0046844482421875
1760555095679025400,3.793025390625,-0.99462890625,-0.0175323486328125,-0.0070343017578125
1760555095689029400,3.803029296875,-0.997161865234375,-0.0188446044921875,-0.0018310546875
1760555095699033600,3.81303369140625,-0.9977569580078125,-0.0160675048828125,0.002899169921875
1760555095709038600,3.82303857421875,-1.000518798828125,-0.0140228271484375,0.0016632080078125
1760555095719042600,3.83304248046875,-1.0000152587890625,-0.009735107421875,0.0053863525390625
1760555095729046500,3.843046630859375,-1.0049285888671875,-0.0069732666015625,0.00323486328125
1760555095739051500,3.853051513671875,-1.0007171630859375,-0.01275634765625,-0.002227783203125
1760555095749055500,3.863055419921875,-0.9956817626953125,-0.01873779296875,-0.0035858154296875
1760555095759060500,3.873060546875,-0.9968719482421875,-0.0180206298828125,-0.007598876953125
1760555095769064400,3.883064453125,-0.998382568359375,-0.0195159912109375,-0.0071563720703125
1760555095779068400,3.893068359375,-0.995513916015625,-0.0198822021484375,-0.0029296875
1760555095789073400,3.903073486328125,-1.001922607421875,-0.0120849609375,-0.001708984375
1760555095799077600,3.91307763671875,-1.00115966796875,-0.0086669921875,-0.0003204345703125
1760555095809081600,3.92308154296875,-0.9984283447265625,-0.011749267578125,-0.00091552734375
1760555095819086600,3.933086669921875,-0.9976043701171875,-0.0131683349609375,0.000335693359375
1760555095829090600,3.943090576171875,-1.0006866455078125,-0.01409912109375,-0.000701904296875
1760555095839095600,3.953095458984375,-0.9990234375,-0.01678466796875,-0.005218505859375
1760555095849099500,3.963099609375,-0.995269775390625,-0.021575927734375,-0.0013885498046875
1760555095859103500,3.973103515625,-0.996978759765625,-0.020751953125,-0.0010223388671875
1760555095869108500,3.9831083984375,-0.99774169921875,-0.0183258056640625,0.0011749267578125
1760555095879111400,3.993111328125,-0.9959564208984375,-0.012725830078125,0.0024871826171875
1760555095889115600,4.00311572265625,-1.0009307861328125,-0.0100555419921875,-0.0025787353515625
1760555095899119400,4.013119384765625,-1.0012359619140625,-0.0104217529296875,-0.0075225830078125
1760555095909124400,4.023124267578125,-0.9974517822265625,-0.01702880859375,-0.010101318359375
1760555095919128300,4.03312841796875,-0.9986724853515625,-0.017486572265625,-0.010498046875
1760555095929132500,4.043132568359375,-0.9951629638671875,-0.0218353271484375,-0.003631591796875
1760555095939137500,4.053137451171875,-0.9952850341796875,-0.0220489501953125,-0.001739501953125
1760555095949141500,4.0631416015625,-0.99798583984375,-0.0167083740234375,-0.0012969970703125
1760555095959146500,4.073146484375,-0.99505615234375,-0.0192413330078125,0.002532958984375
1760555095969150500,4.083150390625,-0.9982147216796875,-0.0136566162109375,-0.0028228759765625
1760555095979154700,4.09315478515625,-1.001708984375,-0.0120697021484375,-0.005462646484375
1760555095989159700,4.10315966796875,-0.999176025390625,-0.0169219970703125,-0.00421142578125
1760555095999163400,4.113163330078125,-0.9969329833984375,-0.018646240234375,-0.001922607421875
1760555096009168400,4.12316845703125,-0.9975738525390625,-0.0157623291015625,-0.0055389404296875
1760555096019172400,4.13317236328125,-1.000274658203125,-0.0100860595703125,-0.0102386474609375
1760555096029176600,4.143176513671875,-1.00164794921875,-0.0093231201171875,-0.01373291015625
1760555096039181600,4.153181640625,-0.9994659423828125,-0.011749267578125,-0.0137786865234375
1760555096049185500,4.163185546875,-1.00091552734375,-0.0088043212890625,-0.0111236572265625
1760555096059189800,4.173189697265625,-0.9980926513671875,-0.0154876708984375,-0.000091552734375
1760555096069194800,4.18319482421875,-0.9968719482421875,-0.014312744140625,0.0054168701171875
1760555096079198700,4.19319873046875,-0.9973297119140625,-0.0166778564453125,-0.0026397705078125
1760555096089203700,4.20320361328125,-0.99713134765625,-0.016510009765625,-0.005340576171875
1760555096099207700,4.213207763671875,-0.9994049072265625,-0.01422119140625,-0.0014801025390625
1760555096109211600,4.223211669921875,-0.999298095703125,-0.0156097412109375,-0.0057525634765625
1760555096119216600,4.233216552734375,-0.9981536865234375,-0.01690673828125,-0.0101470947265625
1760555096129220600,4.243220703125,-0.999969482421875,-0.0143280029296875,-0.01068115234375
1760555096139225600,4.2532255859375,-0.999237060546875,-0.0139312744140625,-0.0083465576171875
1760555096149229800,4.263229736328125,-0.996307373046875,-0.015716552734375,-0.0079345703125
1760555096159233800,4.27323388671875,-1.000091552734375,-0.008392333984375,-0.006805419921875
1760555096169238800,4.28323876953125,-1.0010528564453125,-0.0073089599609375,-0.006256103515625
1760555096179242500,4.293242431640625,-1.001220703125,-0.0068206787109375,-0.0043487548828125
1760555096189246700,4.303246826171875,-1.003997802734375,-0.002105712890625,-0.0058135986328125
1760555096199251700,4.313251708984375,-1.0009613037109375,-0.008148193359375,-0.006591796875
1760555096209255700,4.323255615234375,-0.998748779296875,-0.0101470947265625,-0.0018463134765625
1760555096219260700,4.3332607421875,-0.9960174560546875,-0.0144500732421875,-0.004058837890625
1760555096229264600,4.3432646484375,-0.9978790283203125,-0.0145263671875,-0.001434326171875
1760555096239270700,4.353270751953125,-1.0006256103515625,-0.009552001953125,0.0031280517578125
1760555096249274600,4.363274658203125,-0.999359130859375,-0.0098876953125,0.0045318603515625
1760555096259279600,4.373279541015625,-0.997467041015625,-0.0139312744140625,-0.00048828125
1760555096269283800,4.383283935546875,-0.9952545166015625,-0.015106201171875,-0.00177001953125
1760555096279288800,4.393288818359375,-0.9967041015625,-0.0128936767578125,-0.0056304931640625
1760555096289292800,4.403292724609375,-0.9967193603515625,-0.01806640625,-0.0068359375
1760555096299296500,4.413296630859375,-0.9960479736328125,-0.0176849365234375,-0.00555419921875
1760555096309301500,4.423301513671875,-0.99835205078125,-0.016876220703125,-0.0034942626953125
1760555096319305700,4.4333056640625,-0.9989471435546875,-0.012939453125,-0.00274658203125
1760555096329309700,4.443309814453125,-0.9979705810546875,-0.0112152099609375,0.0007781982421875
1760555096339314700,4.453314697265625,-0.9963836669921875,-0.0130767822265625,-0.0039520263671875
1760555096349318700,4.463318603515625,-0.9983673095703125,-0.0164947509765625,-0.000396728515625
1760555096359323600,4.47332373046875,-0.996368408203125,-0.0153045654296875,-0.001617431640625
1760555096369327900,4.483327880859375,-0.9983978271484375,-0.011810302734375,-0.004730224609375
1760555096379331800,4.493331787109375,-0.9998016357421875,-0.0139617919921875,-0.001556396484375
1760555096389336800,4.5033369140625,-0.9966583251953125,-0.01385498046875,0.0008697509765625
1760555096399340500,4.513340576171875,-1.0008697509765625,-0.008056640625,0.0001983642578125
1760555096409345500,4.523345458984375,-1.00079345703125,-0.005859375,-0.002166748046875
1760555096419349800,4.533349853515625,-0.998016357421875,-0.007476806640625,-0.00079345703125
1760555096429353700,4.543353759765625,-1.0017852783203125,-0.007659912109375,-0.005157470703125
1760555096439358700,4.553358642578125,-1.00146484375,-0.0076904296875,-0.0043487548828125
1760555096449362700,4.56336279296875,-1.0001678466796875,-0.0076141357421875,-0.00341796875
1760555096459367700,4.57336767578125,-1.0012359619140625,-0.0077362060546875,-0.0072021484375
1760555096469372000,4.583371826171875,-0.997314453125,-0.011566162109375,-0.003448486328125
1760555096479376000,4.5933759765625,-0.9963531494140625,-0.015380859375,0.0008544921875
1760555096489380900,4.603380859375,-0.996795654296875,-0.01641845703125,-0.001190185546875
1760555096499384600,4.613384521484375,-0.9969940185546875,-0.015350341796875,-0.0033416748046875
1760555096509389600,4.6233896484375,-0.9990234375,-0.0161285400390625,-0.0034332275390625
1760555096519393800,4.633393798828125,-0.9962310791015625,-0.0156097412109375,-0.0054931640625
1760555096529397800,4.643397705078125,-0.9981536865234375,-0.0138702392578125,-0.0016632080078125
1760555096539402800,4.65340283203125,-0.9965972900390625,-0.01226806640625,-0.0035247802734375
1760555096549406700,4.66340673828125,-0.9959716796875,-0.0162811279296875,-0.00567626953125
1760555096559410700,4.67341064453125,-0.9961090087890625,-0.013519287109375,-0.0011444091796875
1760555096569415700,4.683415771484375,-1.00091552734375,-0.0094757080078125,0.0003204345703125
1760555096579419600,4.693419677734375,-0.99981689453125,-0.0108489990234375,-0.000274658203125
1760555096589424600,4.703424560546875,-0.998443603515625,-0.0126495361328125,0.0007476806640625
1760555096599428600,4.7134287109375,-0.998565673828125,-0.01104736328125,0.0008087158203125
1760555096609432600,4.7234326171875,-0.9985809326171875,-0.01202392578125,-0.001251220703125
1760555096619437600,4.7334375,-0.998992919921875,-0.011962890625,-0.0006561279296875
1760555096629441800,4.74344189453125,-0.9995269775390625,-0.0142364501953125,-0.00079345703125
1760555096639446800,4.75344677734375,-0.9971771240234375,-0.0179443359375,-0.0034637451171875
1760555096649450800,4.76345068359375,-0.9969329833984375,-0.0156097412109375,-0.006317138671875
1760555096659454700,4.773454833984375,-0.999114990234375,-0.0098419189453125,-0.0046539306640625
1760555096669459700,4.783459716796875,-0.9993438720703125,-0.0101165771484375,-0.002777099609375
1760555096679463700,4.793463623046875,-0.996551513671875,-0.0122222900390625,-0.0004730224609375
1760555096689467600,4.803467529296875,-0.9977874755859375,-0.0104217529296875,-0.0000457763671875
1760555096699472600,4.81347265625,-1.0020751953125,-0.00628662109375,-0.006622314453125
1760555096709476600,4.8234765625,-0.99755859375,-0.01214599609375,-0.00543212890625
1760555096719481600,4.833481689453125,-0.99688720703125,-0.013519287109375,-0.0017852783203125
1760555096729485800,4.84348583984375,-0.999542236328125,-0.0116424560546875,-0.0034332275390625
1760555096739489800,4.85348974609375,-0.99981689453125,-0.00970458984375,-0.002777099609375
1760555096749494800,4.863494873046875,-0.9984893798828125,-0.0106353759765625,0.0021209716796875
1760555096759498800,4.873498779296875,-0.9993896484375,-0.010040283203125,-0.001129150390625
1760555096769503700,4.883503662109375,-0.9991607666015625,-0.0099945068359375,-0.005706787109375
1760555096779507700,4.8935078125,-0.9988250732421875,-0.0122528076171875,-0.0062713623046875
1760555096789511700,4.90351171875,-0.9975738525390625,-0.0150909423828125,-0.004425048828125
1760555096799516700,4.9135166015625,-0.997894287109375,-0.01348876953125,-0.0054473876953125
1760555096809520600,4.923520751953125,-1.0007171630859375,-0.01190185546875,-0.005218505859375
1760555096819525600,4.933525634765625,-0.995269775390625,-0.01263427734375,0.00054931640625
1760555096829529900,4.94352978515625,-0.9946441650390625,-0.0170135498046875,0.0002899169921875
1760555096839533800,4.953533935546875,-0.9964752197265625,-0.0193634033203125,-0.002716064453125
1760555096849538800,4.963538818359375,-0.997894287109375,-0.0148468017578125,-0.0050506591796875
1760555096859542800,4.973542724609375,-1.0010528564453125,-0.0085601806640625,-0.0052642822265625
1760555096869546800,4.983546630859375,-0.9990997314453125,-0.01043701171875,-0.009552001953125
1760555096879551700,4.9935517578125,-0.9962310791015625,-0.015350341796875,-0.0161285400390625
1760555096889555700,5.0035556640625,-1.0007781982421875,-0.0098876953125,-0.01116943359375
1760555096899560700,5.013560791015625,-0.999359130859375,-0.0069732666015625,-0.0093841552734375
1760555096909564700,5.023564697265625,-0.9990386962890625,-0.0109710693359375,-0.0113983154296875
1760555096919569000,5.03356884765625,-0.998992919921875,-0.0105133056640625,-0.00897216796875
1760555096929574000,5.043573974609375,-0.9978485107421875,-0.00927734375,-0.0052642822265625
1760555096939577900,5.053577880859375,-0.9990386962890625,-0.0112152099609375,-0.0045928955078125
1760555096949582800,5.063582763671875,-0.99847412109375,-0.0106353759765625,-0.004852294921875
1760555096959586600,5.073586669921875,-1.0003204345703125,-0.0086517333984375,-0.0085906982421875
1760555096969590800,5.0835908203125,-1.0013580322265625,-0.008575439453125,-0.005279541015625
1760555096979595800,5.093595703125,-0.999176025390625,-0.008544921875,-0.002655029296875
1760555096989599700,5.103599853515625,-0.9999847412109375,-0.0078582763671875,-0.0032806396484375
1760555096999604700,5.113604736328125,-0.999664306640625,-0.0106048583984375,-0.0037078857421875
1760555097009608700,5.123608642578125,-0.9957122802734375,-0.016326904296875,-0.005096435546875
1760555097019612700,5.13361279296875,-0.99578857421875,-0.015777587890625,-0.0117950439453125
1760555097029617700,5.14361767578125,-0.9991302490234375,-0.0119476318359375,-0.01605224609375
1760555097039622000,5.153621826171875,-1.0001983642578125,-0.0096893310546875,-0.0142822265625
1760555097049630500,5.16363037109375,-1.0003814697265625,-0.006072998046875,-0.0089111328125
1760555097059634400,5.173634521484375,-0.9997711181640625,-0.005096435546875,-0.0026397705078125
1760555097069638100,5.18363818359375,-0.9989166259765625,-0.0103607177734375,-0.00115966796875
1760555097079643100,5.19364306640625,-0.9981689453125,-0.014007568359375,-0.0087738037109375
1760555097089647400,5.2036474609375,-0.999053955078125,-0.0142669677734375,-0.0091705322265625
1760555097099651300,5.2136513671875,-0.9946746826171875,-0.019134521484375,-0.010650634765625
1760555097109656300,5.22365625,-0.9931640625,-0.02142333984375,-0.011688232421875
1760555097119660300,5.233660400390625,-0.9991607666015625,-0.0148468017578125,-0.00823974609375
1760555097129665300,5.243665283203125,-0.9974365234375,-0.012420654296875,-0.0024871826171875
1760555097139669500,5.25366943359375,-0.994903564453125,-0.0187835693359375,-0.0046234130859375
1760555097149673500,5.263673583984375,-0.9954681396484375,-0.015777587890625,-0.01885986328125
1760555097159678500,5.273678466796875,-0.999237060546875,-0.0163726806640625,-0.019500732421875
1760555097169682200,5.28368212890625,-1.00286865234375,-0.0002288818359375,-0.0124053955078125
1760555097179687200,5.293687255859375,-0.9962005615234375,-0.006317138671875,-0.003814697265625
1760555097189691400,5.30369140625,-1.0009765625,-0.008148193359375,-0.0091094970703125
1760555097199695400,5.3136953125,-1.0019073486328125,-0.003753662109375,-0.0051116943359375
1760555097209700400,5.323700439453125,-0.99725341796875,-0.0046539306640625,0.002227783203125
1760555097219704300,5.333704345703125,-0.998992919921875,-0.0076446533203125,-0.0018157958984375
1760555097229709300,5.343709228515625,-0.999237060546875,-0.0134735107421875,-0.0115966796875
1760555097239713500,5.353713623046875,-0.99700927734375,-0.0121002197265625,-0.0102081298828125
1760555097249717200,5.36371728515625,-0.999420166015625,-0.0091552734375,-0.0071563720703125
1760555097259722500,5.373722412109375,-0.9977569580078125,-0.016632080078125,-0.014007568359375
1760555097269726200,5.383726318359375,-0.99945068359375,-0.01483154296875,-0.0188140869140625
1760555097279730400,5.39373046875,-1.0003204345703125,-0.0128021240234375,-0.0147857666015625
1760555097289735400,5.4037353515625,-0.997894287109375,-0.0137939453125,-0.0164031982421875
1760555097299739400,5.413739501953125,-0.998260498046875,-0.0102386474609375,-0.015625
1760555097309744400,5.423744384765625,-0.999481201171875,-0.009918212890625,-0.0093231201171875
1760555097319748400,5.433748291015625,-0.9981689453125,-0.0058135986328125,-0.00970458984375
1760555097329752300,5.44375244140625,-1.0011749267578125,-0.0038909912109375,-0.0115814208984375
1760555097339757600,5.453757568359375,-1.00390625,-0.0047760009765625,-0.009063720703125
1760555097349761300,5.46376123046875,-0.998931884765625,-0.0055999755859375,-0.0086517333984375
1760555097359766300,5.473766357421875,-0.9983673095703125,-0.010406494140625,-0.012969970703125
1760555097369770200,5.483770263671875,-0.999176025390625,-0.0104217529296875,-0.013275146484375
1760555097379774200,5.493774169921875,-0.996185302734375,-0.011444091796875,-0.0085601806640625
1760555097389779500,5.503779541015625,-0.996856689453125,-0.0139617919921875,-0.0103759765625
1760555097399783400,5.513783447265625,-1.000640869140625,-0.01190185546875,-0.016204833984375
1760555097409788400,5.523788330078125,-0.9963531494140625,-0.012847900390625,-0.0157012939453125
1760555097419792400,5.53379248046875,-0.9958038330078125,-0.0147857666015625,-0.01495361328125
1760555097429796400,5.54379638671875,-0.99993896484375,-0.010894775390625,-0.0164794921875
1760555097439801300,5.55380126953125,-0.9969635009765625,-0.0140533447265625,-0.016998291015625
1760555097449805300,5.563805419921875,-0.998260498046875,-0.0090789794921875,-0.0126953125
1760555097459809300,5.573809326171875,-0.9987640380859375,-0.00799560546875,-0.004669189453125
1760555097469814300,5.583814208984375,-1.0003662109375,-0.0095672607421875,-0.0070648193359375
1760555097479818200,5.593818359375,-1.0005035400390625,-0.0099639892578125,-0.0127410888671875
1760555097489823200,5.6038232421875,-0.99835205078125,-0.0099945068359375,-0.007415771484375
1760555097499827500,5.613827392578125,-0.995208740234375,-0.0111846923828125,-0.0047149658203125
1760555097509831400,5.62383154296875,-0.99627685546875,-0.0144500732421875,-0.0072021484375
1760555097519836400,5.63383642578125,-0.996826171875,-0.014923095703125,-0.0099639892578125
1760555097529840400,5.64384033203125,-0.9975128173828125,-0.0111236572265625,-0.0085296630859375
1760555097539845400,5.653845458984375,-0.995849609375,-0.0162506103515625,-0.0090484619140625
1760555097549849300,5.663849365234375,-0.9983978271484375,-0.009521484375,-0.012451171875
1760555097559853300,5.673853271484375,-0.998138427734375,-0.009490966796875,-0.0164031982421875
1760555097569858300,5.6838583984375,-0.99993896484375,-0.0088958740234375,-0.00872802734375
1760555097579862300,5.6938623046875,-0.9984283447265625,-0.0034637451171875,-0.0130615234375
1760555097589867300,5.7038671875,-0.998382568359375,-0.009185791015625,-0.018798828125
1760555097599871500,5.71387158203125,-0.9992828369140625,-0.0107574462890625,-0.0206146240234375
1760555097609875500,5.72387548828125,-0.99847412109375,-0.0154876708984375,-0.011138916015625
1760555097619880400,5.73388037109375,-0.9992828369140625,-0.01043701171875,-0.0035858154296875
1760555097629884200,5.74388427734375,-0.999847412109375,-0.0068511962890625,-0.0018463134765625
1760555097639888400,5.753888427734375,-1.0009002685546875,-0.0045013427734375,0.0024871826171875
1760555097649893400,5.763893310546875,-0.9990386962890625,-0.0055084228515625,-0.0008392333984375
1760555097659897300,5.7738974609375,-0.9979248046875,-0.0100250244140625,-0.011566162109375
1760555097669902300,5.78390234375,-1.001495361328125,-0.008453369140625,-0.0148162841796875
1760555097679906300,5.79390625,-0.9987030029296875,-0.0085906982421875,-0.0082244873046875
1760555097689910500,5.80391064453125,-0.995452880859375,-0.012664794921875,-0.0045318603515625
1760555097699915500,5.81391552734375,-0.9988555908203125,-0.012115478515625,-0.01031494140625
1760555097709919500,5.82391943359375,-0.999725341796875,-0.0069732666015625,-0.0070343017578125
1760555097719924500,5.833924560546875,-0.996185302734375,-0.006988525390625,-0.0031585693359375
1760555097729928200,5.84392822265625,-1.000152587890625,-0.0063018798828125,-0.0052490234375
1760555097739932400,5.853932373046875,-0.99951171875,-0.0073394775390625,-0.0089874267578125
1760555097749937400,5.8639375,-0.9990234375,-0.0099334716796875,-0.0053558349609375
1760555097759941400,5.87394140625,-0.99749755859375,-0.010223388671875,0.000030517578125
1760555097769946400,5.8839462890625,-0.9995880126953125,-0.0086669921875,-0.00836181640625
1760555097779950300,5.893950439453125,-0.9982757568359375,-0.011627197265625,-0.0108642578125
1760555097789954300,5.903954345703125,-0.9979400634765625,-0.01141357421875,-0.0085296630859375
1760555097799959300,5.913959228515625,-0.9987030029296875,-0.007781982421875,-0.009246826171875
1760555097809963500,5.923963623046875,-1.0010223388671875,-0.006744384765625,-0.0095367431640625
1760555097819967200,5.93396728515625,-0.9963226318359375,-0.0094757080078125,-0.00262451171875
1760555097829972200,5.94397216796875,-0.9926605224609375,-0.0175323486328125,0.00213623046875
1760555097839976200,5.95397607421875,-0.9936370849609375,-0.0179595947265625,-0.00201416015625
1760555097849981200,5.963981201171875,-0.99932861328125,-0.0085906982421875,-0.0016021728515625
1760555097859985400,5.9739853515625,-0.9964752197265625,-0.0066680908203125,0.0010986328125
1760555097869989400,5.9839892578125,-1.000457763671875,-0.005157470703125,-0.0080718994140625
1760555097879994400,5.993994384765625,-1.00299072265625,0.0013427734375,-0.0182952880859375
1760555097889998300,6.003998291015625,-0.9978485107421875,-0.007049560546875,-0.0135650634765625
1760555097900003300,6.01400341796875,-0.9983062744140625,-0.0090484619140625,-0.0108795166015625
1760555097910007300,6.02400732421875,-1.001312255859375,-0.008758544921875,-0.0212249755859375
1760555097920011300,6.03401123046875,-1.001220703125,-0.0050048828125,-0.0181732177734375
1760555097930016300,6.044016357421875,-0.9997711181640625,-0.0026702880859375,-0.0047149658203125
1760555097940020200,6.054020263671875,-1.0057830810546875,0.002593994140625,-0.0090484619140625
1760555097950025200,6.064025146484375,-1.0014190673828125,0.000213623046875,-0.0088348388671875
1760555097960029400,6.074029541015625,-1.000640869140625,-0.0004119873046875,-0.0011444091796875
1760555097970033400,6.084033447265625,-1.001190185546875,-0.00054931640625,-0.003021240234375
1760555097980038400,6.094038330078125,-0.9971923828125,-0.005584716796875,-0.0069732666015625
1760555097990042400,6.10404248046875,-0.9968109130859375,-0.0077056884765625,-0.0006256103515625
1760555098000046300,6.11404638671875,-0.9975738525390625,-0.008758544921875,-0.000396728515625
1760555098010051300,6.12405126953125,-0.9982452392578125,-0.006317138671875,-0.0019989013671875
1760555098020055300,6.13405517578125,-0.99774169921875,-0.0079498291015625,-0.004150390625
1760555098030060300,6.144060302734375,-0.997772216796875,-0.007965087890625,-0.004302978515625
1760555098040064300,6.154064208984375,-1.0008697509765625,-0.0073089599609375,-0.0098114013671875
1760555098050064600,6.164064697265625,-0.9998016357421875,-0.0068511962890625,-0.009124755859375
1760555098060069600,6.174069580078125,-0.9972381591796875,-0.010711669921875,-0.0045623779296875
1760555098070073600,6.184073486328125,-0.996490478515625,-0.0124359130859375,-0.006500244140625
1760555098080078600,6.19407861328125,-0.9958038330078125,-0.0121307373046875,-0.0061187744140625
1760555098090082600,6.20408251953125,-0.99810791015625,-0.00921630859375,-0.0055694580078125
1760555098100086800,6.214086669921875,-0.998291015625,-0.0086517333984375,-0.0041046142578125
1760555098110091800,6.224091796875,-0.9967193603515625,-0.00799560546875,-0.00567626953125
1760555098120095500,6.234095458984375,-0.999298095703125,-0.0082855224609375,-0.0064697265625
1760555098130100500,6.2441005859375,-0.9981689453125,-0.010528564453125,-0.009185791015625
1760555098140104400,6.2541044921875,-0.9976959228515625,-0.011138916015625,-0.0142669677734375
1760555098150108700,6.264108642578125,-1.0009613037109375,-0.0085296630859375,-0.015045166015625
1760555098160113700,6.27411376953125,-0.997589111328125,-0.0095977783203125,-0.0098419189453125
1760555098170117600,6.28411767578125,-0.995849609375,-0.0088043212890625,-0.0054779052734375
1760555098180122600,6.29412255859375,-1.00213623046875,-0.0030670166015625,-0.0081634521484375
1760555098190126600,6.304126708984375,-1.001983642578125,-0.0009765625,-0.0066070556640625
1760555098200130800,6.314130859375,-0.9974365234375,-0.0063934326171875,-0.003143310546875
1760555098210135800,6.3241357421875,-0.996185302734375,-0.01025390625,-0.0082244873046875
1760555098220139500,6.334139404296875,-1.0008544921875,-0.007965087890625,-0.011505126953125
1760555098230143500,6.3441435546875,-0.9977569580078125,-0.007110595703125,-0.013427734375
1760555098240148500,6.3541484375,-0.9972991943359375,-0.0106201171875,-0.015625
1760555098250152700,6.364152587890625,-0.9987335205078125,-0.006927490234375,-0.0165252685546875
1760555098260157700,6.37415771484375,-0.9985198974609375,-0.0034637451171875,-0.01116943359375
1760555098270161700,6.38416162109375,-1.0010986328125,-0.004608154296875,-0.01470947265625
1760555098280165600,6.39416552734375,-0.9991607666015625,-0.0067596435546875,-0.01824951171875
1760555098290170600,6.404170654296875,-0.997406005859375,-0.00750732421875,-0.0154266357421875
1760555098300174600,6.414174560546875,-1.000762939453125,-0.0027923583984375,-0.0126190185546875
1760555098310179600,6.4241796875,-0.9995574951171875,-0.0052490234375,-0.008544921875
1760555098320183600,6.43418359375,-0.99615478515625,-0.00958251953125,-0.007659912109375
1760555098330187500,6.4441875,-0.9994049072265625,-0.0059051513671875,-0.00421142578125
1760555098340192500,6.454192626953125,-0.9999847412109375,-0.00830078125,-0.0093994140625
1760555098350196500,6.464196533203125,-0.99652099609375,-0.01434326171875,-0.0130462646484375
1760555098360201500,6.474201416015625,-0.9969329833984375,-0.01239013671875,-0.0136566162109375
1760555098370205700,6.484205810546875,-0.997528076171875,-0.01507568359375,-0.0084991455078125
1760555098380209700,6.494209716796875,-1.000701904296875,-0.00836181640625,-0.0091094970703125
1760555098390214700,6.504214599609375,-0.99456787109375,-0.015411376953125,-0.0083160400390625
1760555098400218400,6.51421826171875,-1.0014801025390625,-0.009490966796875,-0.0122222900390625
1760555098410222600,6.52422265625,-0.9979095458984375,-0.014251708984375,-0.01300048828125
1760555098420227600,6.5342275390625,-0.9935302734375,-0.019500732421875,-0.012115478515625
1760555098430231600,6.5442314453125,-0.9976654052734375,-0.015899658203125,-0.0147247314453125
1760555098440236500,6.554236572265625,-0.9986114501953125,-0.012725830078125,-0.00811767578125
1760555098450240500,6.564240478515625,-0.998291015625,-0.009979248046875,-0.00823974609375
1760555098460244700,6.57424462890625,-1.0002593994140625,-0.00799560546875,-0.0132904052734375
1760555098470249700,6.584249755859375,-0.9996795654296875,-0.0103607177734375,-0.0124664306640625
1760555098480253700,6.594253662109375,-0.9966888427734375,-0.0120697021484375,-0.0132598876953125
1760555098490258700,6.6042587890625,-0.9987030029296875,-0.010894775390625,-0.0131683349609375
1760555098500262400,6.614262451171875,-0.9967498779296875,-0.014739990234375,-0.01129150390625
1760555098510266600,6.6242666015625,-0.9989013671875,-0.008514404296875,-0.0148468017578125
1760555098520271600,6.634271728515625,-0.9957427978515625,-0.017578125,-0.015472412109375
1760555098530275600,6.644275634765625,-0.99725341796875,-0.014495849609375,-0.008758544921875
1760555098540280600,6.654280517578125,-0.9954376220703125,-0.0109100341796875,-0.001068115234375
1760555098550284500,6.664284423828125,-0.9992218017578125,-0.0093841552734375,-0.008148193359375
1760555098560288800,6.674288818359375,-0.997772216796875,-0.0094757080078125,-0.008392333984375
1760555098570293800,6.684293701171875,-0.9949951171875,-0.0130157470703125,-0.0083465576171875
1760555098580297700,6.694297607421875,-0.999298095703125,-0.0137481689453125,-0.01763916015625
1760555098590302700,6.704302734375,-1,-0.0100250244140625,-0.019317626953125
1760555098600306400,6.714306396484375,-0.998748779296875,-0.0093994140625,-0.013427734375
1760555098610310700,6.724310546875,-1.0015716552734375,-0.0064239501953125,-0.0121307373046875
1760555098620315600,6.734315673828125,-1.0022735595703125,-0.0067901611328125,-0.01116943359375
1760555098630319600,6.744319580078125,-0.9956207275390625,-0.0093841552734375,-0.0089569091796875
1760555098640324600,6.75432470703125,-0.9979705810546875,-0.01153564453125,-0.0119476318359375
1760555098650328600,6.76432861328125,-0.9971923828125,-0.0133209228515625,-0.0070037841796875
1760555098660332800,6.774332763671875,-0.996429443359375,-0.012481689453125,-0.001739501953125
1760555098670337800,6.784337890625,-0.996673583984375,-0.014373779296875,-0.0045623779296875
1760555098680341800,6.794341796875,-0.9969635009765625,-0.0140380859375,-0.003509521484375
1760555098690345500,6.804345458984375,-1.002044677734375,-0.0079193115234375,-0.0074310302734375
1760555098700350500,6.8143505859375,-1.001983642578125,-0.0052947998046875,-0.014312744140625
1760555098710354700,6.824354736328125,-0.998504638671875,-0.007781982421875,-0.014923095703125
1760555098720359700,6.834359619140625,-0.9969024658203125,-0.0118865966796875,-0.014739990234375
1760555098730363600,6.84436376953125,-0.9954071044921875,-0.016632080078125,-0.0183563232421875
1760555098740367600,6.85436767578125,-0.9930267333984375,-0.0208892822265625,-0.009918212890625
1760555098750372600,6.86437255859375,-0.993072509765625,-0.0203704833984375,-0.0053558349609375
1760555098760376600,6.87437646484375,-0.998382568359375,-0.0131683349609375,-0.011199951171875
1760555098770381600,6.884381591796875,-1.001220703125,-0.00506591796875,-0.0102691650390625
1760555098780385500,6.894385498046875,-1.00042724609375,-0.0047454833984375,-0.009063720703125
1760555098790389500,6.904389404296875,-0.999786376953125,-0.00836181640625,-0.0138092041015625
1760555098800394500,6.91439453125,-0.9996337890625,-0.01007080078125,-0.014862060546875
1760555098810398500,6.9243984375,-1.0006256103515625,-0.0074920654296875,-0.0111541748046875
1760555098820403500,6.934403564453125,-0.9978790283203125,-0.01123046875,-0.0098724365234375
1760555098830407700,6.94440771484375,-0.9957275390625,-0.0126495361328125,-0.010345458984375
1760555098840411600,6.95441162109375,-0.9966583251953125,-0.0105438232421875,-0.0083160400390625
1760555098850416600,6.964416748046875,-0.9981842041015625,-0.0108642578125,-0.006195068359375
1760555098860420600,6.974420654296875,-1.00152587890625,-0.0093841552734375,-0.006622314453125
1760555098870425600,6.984425537109375,-0.9970703125,-0.012115478515625,-0.0104827880859375
1760555098880429600,6.9944296875,-0.9980926513671875,-0.01019287109375,-0.011993408203125
1760555098890433500,7.00443359375,-0.9993743896484375,-0.0088348388671875,-0.0110626220703125
1760555098900438500,7.0144384765625,-0.99609375,-0.0150146484375,-0.012115478515625
1760555098910442500,7.0244423828125,-0.9971160888671875,-0.013702392578125,-0.018035888671875
1760555098920447500,7.034447509765625,-1.000701904296875,-0.010955810546875,-0.0230865478515625
1760555098930451700,7.04445166015625,-0.998138427734375,-0.0108184814453125,-0.019073486328125
1760555098940455700,7.05445556640625,-0.9946746826171875,-0.0197601318359375,-0.0077972412109375
1760555098950460700,7.064460693359375,-1.0019073486328125,-0.0043792724609375,-0.013946533203125
1760555098960464600,7.074464599609375,-1.0009918212890625,-0.0020751953125,-0.0125885009765625
1760555098970468600,7.084468505859375,-1.0011749267578125,-0.00567626953125,-0.007080078125
1760555098980473600,7.0944736328125,-1.0002288818359375,-0.0074310302734375,-0.0134124755859375
1760555098990477600,7.1044775390625,-0.9948883056640625,-0.0125274658203125,-0.017974853515625
1760555099000482600,7.114482666015625,-1.0003662109375,-0.00787353515625,-0.014801025390625
1760555099010486500,7.124486572265625,-0.9996185302734375,-0.0061187744140625,-0.0078582763671875
1760555099020490800,7.13449072265625,-0.998260498046875,-0.00457763671875,-0.0116119384765625
1760555099030495700,7.144495849609375,-1.0035858154296875,-0.0036163330078125,-0.0113677978515625
1760555099040499700,7.154499755859375,-0.998046875,-0.003753662109375,-0.0099334716796875
1760555099050505000,7.1645048828125,-0.9981231689453125,-0.008514404296875,-0.0174560546875
1760555099060508700,7.1745087890625,-1.00201416015625,-0.0110321044921875,-0.013275146484375
1760555099070513000,7.184512939453125,-0.995086669921875,-0.009490966796875,-0.0057373046875
1760555099080518000,7.194517822265625,-0.99755859375,-0.0122222900390625,-0.00897216796875
1760555099090521900,7.20452197265625,-0.9958953857421875,-0.014892578125,-0.008819580078125
1760555099100526800,7.21452685546875,-0.9942626953125,-0.0148468017578125,-0.0086669921875
1760555099110530800,7.22453076171875,-0.9996337890625,-0.0112152099609375,-0.01287841796875
1760555099120534800,7.23453466796875,-0.99737548828125,-0.003570556640625,-0.00958251953125
1760555099130539800,7.244539794921875,-0.9993133544921875,-0.00152587890625,-0.0071563720703125
1760555099140543700,7.254543701171875,-1.0040130615234375,-0.0008087158203125,-0.0087432861328125
1760555099150548700,7.264548828125,-0.9998779296875,0.0011138916015625,-0.0073699951171875
1760555099160552700,7.274552734375,-1.002655029296875,-0.0011749267578125,-0.01397705078125
1760555099170556700,7.284556640625,-0.9982147216796875,-0.0050201416015625,-0.0163421630859375
1760555099180561700,7.294561767578125,-0.9980316162109375,-0.006011962890625,-0.013275146484375
1760555099190566000,7.30456591796875,-0.9982757568359375,-0.006317138671875,-0.0113983154296875
1760555099200571000,7.31457080078125,-0.996490478515625,-0.00982666015625,-0.0071258544921875
1760555099210574800,7.324574951171875,-0.9984893798828125,-0.0127105712890625,-0.0073089599609375
1760555099220578800,7.334578857421875,-0.9991455078125,-0.0037384033203125,-0.0042877197265625
1760555099230583800,7.344583740234375,-0.9992218017578125,-0.0067138671875,-0.010894775390625
1760555099240587800,7.354587890625,-0.9993743896484375,-0.0060577392578125,-0.0113983154296875
1760555099250591700,7.364591796875,-1.00042724609375,-0.0022735595703125,-0.0069122314453125
1760555099260596700,7.3745966796875,-1.002044677734375,-0.002044677734375,-0.0075531005859375
1760555099270600700,7.3846005859375,-0.9999542236328125,-0.0020599365234375,-0.005523681640625
1760555099280605700,7.394605712890625,-1.000640869140625,-0.0009002685546875,-0.0089874267578125
1760555099290610000,7.40460986328125,-0.9972686767578125,-0.0022430419921875,-0.0054779052734375
1760555099300614000,7.41461376953125,-1.0006256103515625,-0.0053863525390625,-0.0050048828125
1760555099310619000,7.424618896484375,-0.998504638671875,-0.0085296630859375,-0.00347900390625
1760555099320622800,7.434622802734375,-0.9960479736328125,-0.0118255615234375,-0.00531005859375
1760555099330627800,7.4446279296875,-0.9989166259765625,-0.010009765625,-0.00933837890625
1760555099340631800,7.4546318359375,-0.9963226318359375,-0.0106201171875,-0.0071258544921875
1760555099350635800,7.4646357421875,-0.9983367919921875,-0.010986328125,-0.0123291015625
1760555099360640800,7.474640869140625,-0.999237060546875,-0.0034027099609375,-0.011962890625
1760555099370644700,7.484644775390625,-0.9992523193359375,-0.0000457763671875,-0.0062103271484375
1760555099380649700,7.494649658203125,-0.9996795654296875,-0.0063934326171875,-0.003692626953125
1760555099390654000,7.504654052734375,-0.9947967529296875,-0.011138916015625,-0.0043182373046875
1760555099400658000,7.514657958984375,-1.00018310546875,-0.005126953125,-0.00714111328125
1760555099410663000,7.524662841796875,-0.9985809326171875,-0.005126953125,-0.005645751953125
1760555099420666600,7.53466650390625,-1.0036773681640625,-0.00030517578125,-0.0076446533203125
1760555099430672000,7.544671875,-0.9972076416015625,-0.0025787353515625,-0.0036773681640625
1760555099440675800,7.55467578125,-0.9974365234375,-0.0072479248046875,-0.006378173828125
1760555099450679800,7.5646796875,-0.9998016357421875,-0.0053558349609375,-0.01226806640625
1760555099460684800,7.574684814453125,-0.9960479736328125,-0.0090179443359375,-0.0094757080078125
1760555099470688800,7.584688720703125,-0.9976348876953125,-0.010345458984375,-0.0174407958984375
1760555099480693800,7.59469384765625,-0.998199462890625,-0.0087890625,-0.013824462890625
1760555099490698000,7.604697998046875,-0.9999237060546875,-0.0062713623046875,-0.00750732421875
1760555099500702000,7.614701904296875,-0.9975128173828125,-0.005767822265625,-0.0041961669921875
1760555099510707000,7.62470703125,-0.996337890625,-0.007568359375,-0.002349853515625
1760555099520710700,7.634710693359375,-0.999542236328125,-0.0072784423828125,-0.00390625
1760555099530715600,7.644715576171875,-0.9947662353515625,-0.01080322265625,-0.0052490234375
1760555099540719900,7.654719970703125,-0.996337890625,-0.0107421875,-0.0116729736328125
1760555099550723800,7.664723876953125,-0.996490478515625,-0.0137786865234375,-0.0147552490234375
1760555099560728800,7.674728759765625,-1.0022735595703125,-0.0012054443359375,-0.01666259765625
1760555099570732800,7.68473291015625,-0.9944000244140625,-0.0041656494140625,-0.00946044921875
1760555099580736800,7.69473681640625,-1.0010986328125,-0.0036773681640625,-0.00335693359375
1760555099590741800,7.70474169921875,-1.0001220703125,-0.0017547607421875,-0.00341796875
1760555099600746000,7.71474609375,-0.9970703125,-0.002471923828125,-0.00982666015625
1760555099610751000,7.7247509765625,-1.0052947998046875,0.000244140625,-0.0177001953125
1760555099620754700,7.734754638671875,-0.996978759765625,-0.0033721923828125,-0.0150299072265625
1760555099630758700,7.744758544921875,-0.996917724609375,-0.0050048828125,-0.01678466796875
1760555099640763600,7.754763671875,-1.0019989013671875,-0.0040283203125,-0.0131378173828125
1760555099650768000,7.764767822265625,-0.99700927734375,-0.0062713623046875,-0.00634765625
1760555099660772900,7.77477294921875,-0.9971466064453125,-0.00860595703125,-0.0042572021484375
1760555099670776800,7.78477685546875,-0.9978179931640625,-0.01129150390625,-0.005859375
1760555099680780800,7.79478076171875,-0.9949493408203125,-0.0104522705078125,-0.00836181640625
1760555099690785800,7.804785888671875,-0.99920654296875,-0.00732421875,-0.013946533203125
1760555099700790000,7.8147900390625,-0.998443603515625,-0.010833740234375,-0.015594482421875
1760555099710795000,7.824794921875,-0.9949188232421875,-0.00994873046875,-0.0109405517578125
1760555099720798700,7.834798828125,-0.9999237060546875,-0.0043182373046875,-0.0103912353515625
1760555099730802700,7.844802734375,-1.00079345703125,-0.000396728515625,-0.0108184814453125
1760555099740807700,7.8548076171875,-0.9987030029296875,-0.0025482177734375,-0.0097808837890625
1760555099750812000,7.86481201171875,-1.00006103515625,-0.0011138916015625,-0.0108489990234375
1760555099760817000,7.87481689453125,-1.0005340576171875,-0.0006103515625,-0.0121307373046875
1760555099770820900,7.88482080078125,-0.99993896484375,-0.0023345947265625,-0.0136871337890625
1760555099780824800,7.894824951171875,-0.99798583984375,-0.002716064453125,-0.0107574462890625
1760555099790829800,7.904829833984375,-1.0006561279296875,0.0007476806640625,-0.008575439453125
1760555099800833800,7.914833740234375,-1.00128173828125,-0.0010528564453125,-0.0072021484375
1760555099810838800,7.9248388671875,-0.9996337890625,-0.0034332275390625,-0.0070343017578125
1760555099820842800,7.9348427734375,-0.997894287109375,-0.00408935546875,-0.009429931640625
1760555099830846700,7.9448466796875,-1.0001373291015625,-0.003814697265625,-0.0141143798828125
1760555099840851700,7.954851806640625,-0.9980621337890625,-0.005401611328125,-0.013519287109375
1760555099850856000,7.96485595703125,-1.0001068115234375,-0.0060577392578125,-0.01287841796875
1760555099860861000,7.97486083984375,-0.9969940185546875,-0.010162353515625,-0.0116119384765625
1760555099870865000,7.984864990234375,-0.998077392578125,-0.00738525390625,-0.0097503662109375
1760555099880867800,7.994867919921875,-0.997772216796875,-0.006866455078125,-0.0062103271484375
1760555099890871800,8.004871826171875,-0.998138427734375,-0.0044403076171875,-0.004974365234375
1760555099900875800,8.014875732421874,-1.00238037109375,0.0005035400390625,-0.0094146728515625
1760555099910880800,8.024880859375,-0.999969482421875,-0.0016632080078125,-0.010284423828125
1760555099920884700,8.034884765625,-0.9994049072265625,-0.0042266845703125,-0.012847900390625
1760555099930889700,8.0448896484375,-0.999908447265625,-0.007049560546875,-0.0147705078125
1760555099940894000,8.05489404296875,-0.9969635009765625,-0.0098876953125,-0.012054443359375
1760555099950897700,8.064897705078126,-0.99884033203125,-0.0111541748046875,-0.0117645263671875
1760555099960903000,8.07490283203125,-0.9958343505859375,-0.01153564453125,-0.0127105712890625
1760555099970906600,8.08490673828125,-0.996246337890625,-0.013153076171875,-0.01324462890625
1760555099980911600,8.09491162109375,-0.99658203125,-0.00927734375,-0.0108184814453125
1760555099990915800,8.104915771484375,-0.9987640380859375,-0.0048675537109375,-0.008331298828125
1760555100000919800,8.114919921875,-0.9986419677734375,-0.005615234375,-0.007171630859375
1760555100010924800,8.1249248046875,-0.9979705810546875,-0.0059051513671875,-0.0089111328125
1760555100020928800,8.1349287109375,-0.9994964599609375,-0.0032958984375,-0.0098876953125
1760555100030933800,8.144933837890624,-0.9987030029296875,-0.0040740966796875,-0.0136871337890625
1760555100040938000,8.15493798828125,-0.9999542236328125,-0.0045318603515625,-0.014251708984375
1760555100050941700,8.164941650390626,-0.996978759765625,-0.0057220458984375,-0.013519287109375
1760555100060946700,8.17494677734375,-0.9968719482421875,-0.004791259765625,-0.01092529296875
1760555100070950700,8.18495068359375,-1.0000457763671875,-0.0011444091796875,-0.010833740234375
1760555100080955600,8.19495556640625,-0.9981842041015625,-0.003204345703125,-0.0083465576171875
1760555100090960000,8.2049599609375,-0.9983978271484375,-0.00531005859375,-0.009307861328125
1760555100100963600,8.214963623046875,-0.9984588623046875,-0.0029296875,-0.0102996826171875
1760555100110968600,8.224968505859374,-0.997406005859375,-0.0048675537109375,-0.0102386474609375
1760555100120972500,8.23497265625,-0.9982757568359375,-0.0077056884765625,-0.0132598876953125
1760555100130977500,8.2449775390625,-0.9991912841796875,-0.0083160400390625,-0.0135345458984375
1760555100140981800,8.254981689453125,-0.997161865234375,-0.0077667236328125,-0.01104736328125
1760555100150985700,8.26498583984375,-0.9986572265625,-0.00640869140625,-0.01092529296875
1760555100160990700,8.27499072265625,-1.0009765625,-0.0029754638671875,-0.0118560791015625
1760555100170994700,8.28499462890625,-0.99920654296875,0.0005035400390625,-0.0109100341796875
1760555100180999700,8.294999755859376,-0.9962310791015625,-0.0076141357421875,-0.0117034912109375
1760555100191004000,8.30500390625,-0.9978179931640625,-0.0077056884765625,-0.012176513671875
1760555100201007600,8.315007568359375,-0.998687744140625,-0.0063934326171875,-0.010284423828125
1760555100211012600,8.3250126953125,-0.99652099609375,-0.0091094970703125,-0.0068359375
1760555100221016600,8.3350166015625,-0.997894287109375,-0.0075836181640625,-0.00592041015625
1760555100231021600,8.345021484375,-0.998260498046875,-0.0055389404296875,-0.008941650390625
1760555100241025800,8.35502587890625,-0.9979400634765625,-0.0060882568359375,-0.014892578125
1760555100251029800,8.36502978515625,-0.9951324462890625,-0.011932373046875,-0.0157012939453125
1760555100261034800,8.37503466796875,-0.99725341796875,-0.00811767578125,-0.013671875
1760555100271038700,8.385038818359375,-1.0003814697265625,-0.0026397705078125,-0.0085601806640625
1760555100281043700,8.395043701171875,-0.997955322265625,-0.002777099609375,-0.0066375732421875
1760555100291047700,8.405047607421874,-0.9992218017578125,-0.0034942626953125,-0.0110626220703125
1760555100301051600,8.4150517578125,-0.9978485107421875,-0.0014801025390625,-0.01373291015625
1760555100311056600,8.425056640625,-0.9986419677734375,-0.0020599365234375,-0.016265869140625
1760555100321060600,8.435060546875,-0.9991607666015625,-0.0065155029296875,-0.0196533203125
1760555100331065600,8.445065673828125,-0.99700927734375,-0.0093841552734375,-0.0181121826171875
1760555100341069800,8.45506982421875,-0.9995574951171875,-0.0049591064453125,-0.0142974853515625
1760555100351073800,8.46507373046875,-1.0008392333984375,-0.0018310546875,-0.0108795166015625
1760555100361078800,8.475078857421876,-1.0012969970703125,-0.0005645751953125,-0.0121917724609375
1760555100371082800,8.485082763671874,-1.0005035400390625,-0.0010986328125,-0.0128936767578125
1760555100381087700,8.495087646484375,-0.9980926513671875,-0.0069122314453125,-0.012847900390625
1760555100391091700,8.505091796875,-0.998291015625,-0.0081024169921875,-0.0132293701171875
1760555100401095700,8.515095703125,-0.99658203125,-0.007080078125,-0.01025390625
1760555100411100700,8.5251005859375,-0.9974517822265625,-0.0065765380859375,-0.010162353515625
1760555100421104600,8.535104736328124,-0.9960479736328125,-0.0091400146484375,-0.0086517333984375
1760555100431109600,8.545109619140625,-0.9984130859375,-0.0067596435546875,-0.0074005126953125
1760555100441113600,8.555113525390626,-1.00103759765625,-0.00018310546875,-0.0087890625
1760555100451117800,8.565117919921875,-0.998504638671875,-0.002105712890625,-0.008209228515625
1760555100461122800,8.575122802734375,-0.9985809326171875,-0.004730224609375,-0.0132293701171875
1760555100471126800,8.585126708984374,-0.99932861328125,-0.00732421875,-0.0120086669921875
1760555100481131800,8.5951318359375,-0.9979248046875,-0.0052642822265625,-0.010284423828125
1760555100491135500,8.605135498046875,-0.9997711181640625,-0.0057830810546875,-0.0106658935546875
1760555100501139700,8.6151396484375,-0.998321533203125,-0.004974365234375,-0.0115966796875
1760555100511144700,8.625144775390625,-0.9990386962890625,-0.0027313232421875,-0.0119781494140625
1760555100521148700,8.635148681640626,-0.999176025390625,-0.0050201416015625,-0.007904052734375
1760555100531153700,8.645153564453125,-0.9984893798828125,-0.0061492919921875,-0.0104522705078125
1760555100541157600,8.65515771484375,-0.998291015625,-0.0093536376953125,-0.01318359375
1760555100551161900,8.665161865234374,-0.9946746826171875,-0.0144805908203125,-0.009796142578125
1760555100561166800,8.675166748046875,-0.9986572265625,-0.0124359130859375,-0.014404296875
1760555100571170600,8.685170654296876,-0.998016357421875,-0.007659912109375,-0.0122528076171875
1760555100581175800,8.69517578125,-0.9976043701171875,-0.008636474609375,-0.0116424560546875
1760555100591179500,8.705179443359375,-0.9988250732421875,-0.008331298828125,-0.010589599609375
1760555100601183700,8.715183837890624,-0.9997100830078125,-0.001068115234375,-0.0093994140625
1760555100611188700,8.725188720703125,-1.0009307861328125,-0.00146484375,-0.0064544677734375
1760555100621192700,8.735192626953125,-0.9991912841796875,-0.001861572265625,-0.005523681640625
1760555100631196700,8.74519677734375,-1.000885009765625,-0.0051422119140625,-0.013397216796875
1760555100641201700,8.75520166015625,-0.99835205078125,-0.0092926025390625,-0.0193328857421875
1760555100651206000,8.765205810546876,-0.9966583251953125,-0.01080322265625,-0.013641357421875
1760555100661211000,8.7752109375,-0.99957275390625,-0.0057373046875,-0.0113067626953125
1760555100671214600,8.785214599609375,-0.9970245361328125,-0.011505126953125,-0.0122222900390625
1760555100681219600,8.795219482421874,-0.997894287109375,-0.0096435546875,-0.006378173828125
1760555100691223600,8.8052236328125,-0.9943695068359375,-0.011688232421875,-0.007843017578125
1760555100701227800,8.815227783203126,-0.9988555908203125,-0.0112457275390625,-0.0166015625
1760555100711232800,8.825232666015625,-0.997467041015625,-0.0088043212890625,-0.0118255615234375
1760555100721236700,8.83523681640625,-1.0008544921875,-0.0044708251953125,-0.01715087890625
1760555100731240700,8.84524072265625,-1.00640869140625,0.0018157958984375,-0.020172119140625
1760555100741245700,8.85524560546875,-0.99957275390625,-0.0013580322265625,-0.0102691650390625
1760555100751249700,8.865249755859375,-0.99713134765625,-0.0052642822265625,-0.010528564453125
1760555100761255000,8.8752548828125,-0.9980010986328125,-0.0089569091796875,-0.006103515625
1760555100771258600,8.885258544921875,-0.99847412109375,-0.0054779052734375,-0.001007080078125
1760555100781262600,8.8952626953125,-1.0004119873046875,-0.0041046142578125,-0.0024566650390625
1760555100791267600,8.905267578125,-0.9933013916015625,-0.017669677734375,-0.0112152099609375
1760555100801271600,8.915271484375,-0.99481201171875,-0.0201263427734375,-0.0158233642578125
1760555100811276800,8.92527685546875,-0.997467041015625,-0.0149993896484375,-0.0148468017578125
1760555100821280800,8.93528076171875,-0.996368408203125,-0.009490966796875,-0.016326904296875
1760555100831285800,8.94528564453125,-0.99969482421875,-0.007904052734375,-0.01702880859375
1760555100841289700,8.955289794921875,-0.996368408203125,-0.012237548828125,-0.01019287109375
1760555100851293700,8.965293701171875,-0.9928436279296875,-0.013763427734375,-0.0030670166015625
1760555100861298700,8.975298583984374,-0.998870849609375,-0.008514404296875,-0.0064849853515625
1760555100871302700,8.985302734375,-1.00335693359375,-0.00244140625,-0.013153076171875
1760555100881306600,8.995306640625,-0.9994049072265625,-0.0010223388671875,-0.011810302734375
1760555100891311600,9.0053115234375,-1.00213623046875,-0.002227783203125,-0.013763427734375
1760555100901315600,9.015315673828125,-1.000274658203125,-0.0018463134765625,-0.0179901123046875
1760555100911320600,9.025320556640626,-0.99761962890625,-0.005523681640625,-0.011962890625
1760555100921324800,9.03532470703125,-0.9970245361328125,-0.0101165771484375,-0.0116729736328125
1760555100931328800,9.045328857421875,-0.9974212646484375,-0.0125579833984375,-0.01220703125
1760555100941333800,9.055333740234374,-0.9972381591796875,-0.0075225830078125,-0.00799560546875
1760555100951337500,9.06533740234375,-0.9992523193359375,-0.0070953369140625,-0.01055908203125
1760555100961342500,9.075342529296876,-0.997650146484375,-0.00860595703125,-0.013153076171875
1760555100971346700,9.0853466796875,-0.9973602294921875,-0.0084381103515625,-0.0125885009765625
1760555100981350700,9.0953505859375,-0.998443603515625,-0.0084991455078125,-0.011260986328125
1760555100991355600,9.105355712890624,-0.99530029296875,-0.011383056640625,-0.0104522705078125
1760555101001359600,9.115359619140625,-0.999542236328125,-0.005096435546875,-0.015625
1760555101011364600,9.125364501953126,-1.0001220703125,-0.0047454833984375,-0.0157012939453125
1760555101021368800,9.135368896484374,-0.9969635009765625,-0.0085296630859375,-0.0187835693359375
1760555101031372800,9.145372802734375,-1.00030517578125,-0.007843017578125,-0.0184326171875
1760555101041377800,9.155377685546876,-1.0001983642578125,-0.0016937255859375,-0.0186920166015625
1760555101051381500,9.165381591796875,-1.004547119140625,0.0006103515625,-0.0234222412109375
1760555101061386200,9.17538623046875,-0.99951171875,-0.0020751953125,-0.0218963623046875
1760555101071390500,9.185390380859374,-0.9968109130859375,-0.002777099609375,-0.0273895263671875
1760555101081394400,9.19539453125,-1.0000457763671875,-0.00469970703125,-0.0245819091796875
1760555101091399400,9.2053994140625,-0.9984130859375,-0.0043792724609375,-0.017852783203125
1760555101101403400,9.2154033203125,-0.99969482421875,-0.0064239501953125,-0.013458251953125
1760555101111408400,9.225408447265625,-0.998809814453125,-0.0069427490234375,-0.01214599609375
1760555101121412600,9.23541259765625,-0.99603271484375,-0.010009765625,-0.0140380859375
1760555101131416300,9.245416259765625,-0.9962158203125,-0.00750732421875,-0.014129638671875
1760555101141421600,9.255421630859376,-1.0004730224609375,-0.0018157958984375,-0.0125732421875
1760555101151425300,9.26542529296875,-1.0034332275390625,0.0029754638671875,-0.011810302734375
1760555101161430300,9.27543017578125,-0.9973297119140625,-0.003662109375,-0.0129547119140625
1760555101171434500,9.2854345703125,-1.0010833740234375,-0.00238037109375,-0.0118255615234375
1760555101181438500,9.2954384765625,-1.002044677734375,-0.0010986328125,-0.0121002197265625
1760555101191443500,9.305443359375,-0.9965362548828125,-0.0056915283203125,-0.0175628662109375
1760555101201447400,9.315447509765624,-1.0008392333984375,-0.0067901611328125,-0.0233001708984375
1760555101211452400,9.325452392578125,-1.0019378662109375,-0.003265380859375,-0.022674560546875
1760555101221456600,9.33545654296875,-0.9951171875,-0.0074920654296875,-0.01995849609375
1760555101231460400,9.34546044921875,-1.0024566650390625,-0.0079345703125,-0.0204315185546875
1760555101241465300,9.35546533203125,-0.9996795654296875,-0.0045623779296875,-0.01287841796875
1760555101251469300,9.36546923828125,-0.995452880859375,-0.0098419189453125,-0.010650634765625
1760555101261474300,9.375474365234375,-0.997344970703125,-0.0151824951171875,-0.009918212890625
1760555101271478500,9.385478515625,-0.99078369140625,-0.0181121826171875,-0.00726318359375
1760555101281482500,9.395482421875,-0.996063232421875,-0.0130157470703125,-0.0095367431640625
1760555101291487500,9.405487548828125,-1.001373291015625,-0.0057525634765625,-0.011566162109375
1760555101301491500,9.415491455078126,-0.99615478515625,-0.0034027099609375,-0.01214599609375
1760555101311496400,9.425496337890625,-1.00006103515625,-0.0027313232421875,-0.0150909423828125
1760555101321500400,9.43550048828125,-1.002410888671875,0.001708984375,-0.01336669921875
1760555101331504400,9.44550439453125,-1.0010223388671875,-0.000396728515625,-0.01458740234375
1760555101341509400,9.45550927734375,-0.9973907470703125,-0.0047607421875,-0.0153045654296875
1760555101351513300,9.465513427734376,-1.00054931640625,-0.002471923828125,-0.0174407958984375
1760555101361517300,9.475517333984374,-1.0041046142578125,0.005767822265625,-0.0178985595703125
1760555101371522300,9.485522216796875,-1.002105712890625,0.0038299560546875,-0.012054443359375
1760555101381526500,9.495526611328126,-0.9995880126953125,-0.0048828125,-0.019989013671875
1760555101391531500,9.505531494140625,-0.99603271484375,-0.0132293701171875,-0.0220489501953125
1760555101401535500,9.515535400390625,-0.991302490234375,-0.0215606689453125,-0.017669677734375
1760555101411540500,9.52554052734375,-0.9990997314453125,-0.014068603515625,-0.025604248046875
1760555101421544400,9.53554443359375,-0.9928131103515625,-0.0169219970703125,-0.0164031982421875
1760555101431548400,9.54554833984375,-0.9960174560546875,-0.0081634521484375,-0.011993408203125
1760555101441553400,9.555553466796875,-0.9975128173828125,-0.008575439453125,-0.0084228515625
1760555101451557400,9.565557373046875,-0.992462158203125,-0.013763427734375,-0.0046539306640625
1760555101461562400,9.575562255859374,-0.996307373046875,-0.0135345458984375,-0.0101165771484375
1760555101471566300,9.58556640625,-0.996429443359375,-0.009552001953125,-0.0157470703125
1760555101481570600,9.595570556640626,-0.9937591552734375,-0.0110931396484375,-0.0130615234375
1760555101491575600,9.605575439453125,-1.0011749267578125,-0.00579833984375,-0.0214080810546875
1760555101501579500,9.61557958984375,-0.9974365234375,-0.0050506591796875,-0.0225372314453125
1760555101511583200,9.625583251953126,-0.998748779296875,-0.007080078125,-0.0253143310546875
1760555101521588200,9.635588134765625,-1.0011749267578125,-0.0041351318359375,-0.01959228515625
1760555101531592400,9.645592529296875,-0.9975738525390625,-0.00445556640625,-0.0137176513671875
1760555101541597400,9.655597412109374,-0.9985809326171875,-0.011444091796875,-0.0142364501953125
1760555101551601400,9.665601318359375,-0.9940643310546875,-0.0087738037109375,-0.0131072998046875
1760555101561605400,9.67560546875,-1.0015869140625,-0.00518798828125,-0.0142974853515625
1760555101571610400,9.6856103515625,-1.002105712890625,-0.0040740966796875,-0.0137939453125
1760555101581614600,9.695614501953125,-0.998992919921875,-0.0029144287109375,-0.0121307373046875
1760555101591619600,9.70561962890625,-1.0002288818359375,0.000823974609375,-0.015655517578125
1760555101601623600,9.71562353515625,-0.999267578125,-0.0023345947265625,-0.015167236328125
1760555101611627300,9.725627197265625,-0.9985198974609375,-0.00665283203125,-0.01446533203125
1760555101621632300,9.73563232421875,-0.99560546875,-0.0076751708984375,-0.019012451171875
1760555101631636500,9.745636474609375,-0.99920654296875,-0.00604248046875,-0.0216064453125
1760555101641641500,9.755641357421876,-0.9974365234375,-0.0071258544921875,-0.026702880859375
1760555101651645400,9.7656455078125,-0.99505615234375,-0.006744384765625,-0.0222320556640625
1760555101661649400,9.7756494140625,-0.9985198974609375,-0.00408935546875,-0.0188446044921875
1760555101671654400,9.785654296875,-0.9995269775390625,-0.001800537109375,-0.0170745849609375
1760555101681658600,9.79565869140625,-0.9968109130859375,-0.0067901611328125,-0.0074920654296875
1760555101691663600,9.80566357421875,-0.9957427978515625,-0.0112457275390625,-0.0056304931640625
1760555101701667600,9.81566748046875,-1.002471923828125,-0.00115966796875,-0.0075836181640625
1760555101711671300,9.82567138671875,-1.0014190673828125,0.00469970703125,-0.0148773193359375
1760555101721676300,9.83567626953125,-1.0024261474609375,0.003204345703125,-0.0170745849609375
1760555101731680500,9.845680419921875,-1.00067138671875,0.00213623046875,-0.0205841064453125
1760555101741685500,9.855685546875,-1.0047454833984375,-0.000274658203125,-0.0251922607421875
1760555101751689500,9.865689453125,-0.99603271484375,-0.0024871826171875,-0.018157958984375
1760555101761693400,9.875693359375,-0.9998016357421875,-0.002593994140625,-0.0202789306640625
1760555101771698400,9.885698486328126,-0.998748779296875,-0.0126800537109375,-0.0243682861328125
1760555101781702400,9.895702392578125,-0.9930419921875,-0.0077667236328125,-0.012542724609375
1760555101791707400,9.905707275390625,-0.99993896484375,-0.0074462890625,-0.0172576904296875
1760555101801711400,9.91571142578125,-0.998870849609375,-0.0065155029296875,-0.01898193359375
1760555101811715300,9.92571533203125,-0.997222900390625,-0.00341796875,-0.0149993896484375
1760555101821720300,9.93572021484375,-0.9980010986328125,-0.0069732666015625,-0.0100555419921875
1760555101831724300,9.945724365234375,-0.9961700439453125,-0.005889892578125,-0.0030364990234375
1760555101841729300,9.955729248046875,-0.996551513671875,-0.008697509765625,-0.0082244873046875
1760555101851733500,9.9657333984375,-0.995025634765625,-0.01177978515625,-0.0113983154296875
1760555101861737500,9.975737548828125,-0.9956512451171875,-0.0146331787109375,-0.021942138671875
1760555101871742500,9.985742431640626,-0.9946136474609375,-0.0132293701171875,-0.0238800048828125
1760555101881746400,9.995746337890624,-0.99688720703125,-0.0073394775390625,-0.0127105712890625
1760555101891751400,10.00575146484375,-1.001434326171875,-0.0031890869140625,-0.0107421875
1760555101901755400,10.01575537109375,-0.9996337890625,0.001739501953125,-0.004913330078125
1760555101911759400,10.02575927734375,-1.0019989013671875,-0.00189208984375,-0.003570556640625
1760555101921764400,10.035764404296875,-0.992919921875,-0.009735107421875,-0.00360107421875
1760555101931768300,10.045768310546874,-0.996490478515625,-0.0106353759765625,-0.009918212890625
1760555101941773300,10.055773193359375,-1.001251220703125,-0.0039520263671875,-0.0083770751953125
1760555101951777500,10.065777587890626,-0.9962615966796875,-0.0067901611328125,-0.0064697265625
1760555101961781500,10.075781494140625,-1.0005950927734375,-0.004425048828125,-0.007965087890625
1760555101971786500,10.085786376953125,-0.9974822998046875,-0.0045013427734375,-0.0057525634765625
1760555101981790500,10.09579052734375,-1.0037078857421875,0.0040130615234375,-0.0146331787109375
1760555101991794400,10.10579443359375,-1.002227783203125,0.008392333984375,-0.0086822509765625
1760555102001799400,10.11579931640625,-1.0040283203125,0.00506591796875,-0.0067901611328125
1760555102011803400,10.125803466796874,-0.99884033203125,-0.0058746337890625,-0.017425537109375
1760555102021808400,10.135808349609375,-0.9963226318359375,-0.005706787109375,-0.0162353515625
1760555102031812400,10.145812255859376,-0.99383544921875,-0.01220703125,-0.0196075439453125
1760555102041816600,10.155816650390625,-1.0016632080078125,-0.0102081298828125,-0.0152130126953125
1760555102051821600,10.165821533203125,-0.9931488037109375,-0.0108184814453125,-0.0114898681640625
1760555102061825300,10.1758251953125,-1.000732421875,-0.0066070556640625,-0.00701904296875
1760555102071830300,10.185830322265625,-0.9969635009765625,0.000732421875,-0.0008544921875
1760555102081834200,10.195834228515626,-0.99835205078125,-0.0018310546875,0.002655029296875
1760555102091838500,10.20583837890625,-0.9988861083984375,-0.002838134765625,0.00274658203125
1760555102101843500,10.215843505859375,-0.9949951171875,-0.0113983154296875,-0.000152587890625
1760555102111847400,10.225847412109376,-0.9940643310546875,-0.011322021484375,-0.007354736328125
1760555102121852400,10.235852294921875,-0.99847412109375,-0.002227783203125,-0.0112152099609375
1760555102131856100,10.245856201171875,-0.9980316162109375,0.0009918212890625,-0.015838623046875
1760555102141860400,10.2558603515625,-1.0030059814453125,0.005950927734375,-0.01800537109375
1760555102151865300,10.265865234375,-1.004852294921875,0.0050048828125,-0.0114593505859375
1760555102161869300,10.275869384765626,-1.0006561279296875,0.0057373046875,-0.00067138671875
1760555102171874300,10.285874267578125,-0.9995269775390625,0.00201416015625,-0.003143310546875
1760555102181878300,10.295878173828125,-0.9963226318359375,-0.002716064453125,-0.0006256103515625
1760555102191882500,10.305882568359374,-0.99749755859375,-0.0039215087890625,-0.0037078857421875
1760555102201887500,10.315887451171875,-0.9992828369140625,-0.0045166015625,-0.0115509033203125
1760555102211891500,10.325891357421876,-1.0048980712890625,-0.001556396484375,-0.0101318359375
1760555102221896400,10.335896484375,-0.9959564208984375,-0.00726318359375,-0.0048065185546875
1760555102231900200,10.345900146484375,-1.0009002685546875,0.0047607421875,0.0018768310546875
1760555102241904400,10.355904296875,-0.9969329833984375,0.0005950927734375,0.00042724609375
1760555102251909400,10.365909423828125,-0.9941253662109375,-0.001678466796875,-0.002685546875
1760555102261913300,10.375913330078125,-1.002716064453125,0.00164794921875,-0.01220703125
1760555102271918300,10.38591845703125,-1.0046234130859375,-0.0003509521484375,-0.0089569091796875
1760555102281922300,10.39592236328125,-0.996124267578125,-0.0007171630859375,0.0029144287109375
1760555102291926300,10.40592626953125,-0.9950714111328125,0.00006103515625,0.004974365234375
1760555102301931300,10.41593115234375,-0.9960784912109375,-0.00347900390625,-0.003814697265625
1760555102311935500,10.425935546875,-0.999664306640625,-0.007415771484375,-0.0124664306640625
1760555102321940500,10.4359404296875,-0.99896240234375,-0.0134429931640625,-0.0142974853515625
1760555102331944200,10.445944091796875,-0.992340087890625,-0.016326904296875,-0.0117340087890625
1760555102341948200,10.4559482421875,-0.9958953857421875,-0.0117340087890625,-0.01031494140625
1760555102351953200,10.465953125,-0.9984588623046875,-0.00384521484375,-0.0056915283203125
1760555102361957400,10.475957275390625,-0.9996490478515625,0.0008392333984375,-0.003173828125
1760555102371962400,10.48596240234375,-0.999664306640625,0.0048980712890625,-0.0029754638671875
1760555102381966300,10.49596630859375,-1.000762939453125,0.002166748046875,-0.0062408447265625
1760555102391970300,10.50597021484375,-1.000701904296875,0.0041351318359375,-0.0029754638671875
1760555102401975300,10.515975341796874,-1.0013275146484375,0.0073089599609375,0.0019073486328125
1760555102411979300,10.525979248046875,-1.0037689208984375,0.0105133056640625,0.0088348388671875
1760555102421984300,10.535984375,-1.00103759765625,0.012054443359375,0.011627197265625
1760555102431988200,10.54598828125,-0.99969482421875,0.0061798095703125,0.0099639892578125
1760555102441992200,10.5559921875,-0.994384765625,0.0007476806640625,0.00006103515625
1760555102451997200,10.5659970703125,-0.9995269775390625,0.0001983642578125,-0.0045623779296875
1760555102462001400,10.57600146484375,-1.00384521484375,0.0016021728515625,-0.0074462890625
1760555102472006400,10.58600634765625,-1.005859375,-0.004608154296875,-0.006317138671875
1760555102482010400,10.59601025390625,-0.9962921142578125,-0.007354736328125,0.001434326171875
1760555102492014300,10.606014404296875,-0.9928436279296875,-0.00714111328125,-0.0000762939453125
1760555102502019300,10.616019287109374,-0.992889404296875,-0.0039215087890625,-0.0024566650390625
1760555102512023300,10.626023193359375,-0.99505615234375,-0.009429931640625,-0.0039520263671875
1760555102522028300,10.6360283203125,-0.99322509765625,-0.0229644775390625,-0.01373291015625
1760555102532032300,10.6460322265625,-0.99920654296875,-0.014373779296875,-0.0219573974609375
1760555102542036200,10.6560361328125,-1.00433349609375,-0.0022125244140625,-0.0030975341796875
1760555102552041200,10.666041259765626,-1.001922607421875,0.0002288818359375,-0.0026092529296875
1760555102562045400,10.67604541015625,-0.99993896484375,0.001739501953125,-0.0019683837890625
1760555102572050400,10.686050537109375,-1.0001373291015625,-0.0003662109375,0.0052337646484375
1760555102582054400,10.696054443359374,-0.9963226318359375,0.0024261474609375,0.0100555419921875
1760555102592058400,10.706058349609375,-0.998687744140625,0.0046234130859375,0.0074615478515625
1760555102602063400,10.7160634765625,-1.0006103515625,0.012664794921875,0.003631591796875
1760555102612067300,10.7260673828125,-1.0037689208984375,0.016754150390625,0.0086517333984375
1760555102622071300,10.7360712890625,-1.0029296875,0.0149383544921875,0.0099639892578125
1760555102632076300,10.746076171875,-1.0004425048828125,0.014007568359375,0.0061187744140625
1760555102642080300,10.756080322265625,-0.9989471435546875,0.010772705078125,0.0073699951171875
1760555102652085200,10.766085205078125,-0.9996337890625,0.009521484375,0.005523681640625
1760555102662089500,10.77608935546875,-1.000518798828125,0.006927490234375,0.0006866455078125
1760555102672093400,10.786093505859375,-0.999725341796875,-0.0013885498046875,-0.0006103515625
1760555102682098400,10.796098388671876,-0.997711181640625,-0.0051422119140625,-0.0006866455078125
1760555102692102100,10.80610205078125,-0.995849609375,-0.002777099609375,0.004364013671875
1760555102702107400,10.816107421875,-0.9969482421875,0.0026397705078125,0.0096282958984375
1760555102712111400,10.826111328125,-0.9978179931640625,0.003448486328125,0.0137481689453125
1760555102722115300,10.836115234375,-0.9967498779296875,0.0007781982421875,0.01434326171875
1760555102732120300,10.846120361328126,-0.998138427734375,0.0099029541015625,0.0056915283203125
1760555102742124300,10.856124267578124,-0.9990081787109375,0.008392333984375,0.0002899169921875
1760555102752129300,10.86612939453125,-1.0013580322265625,0.005340576171875,-0.0046234130859375
1760555102762133200,10.87613330078125,-0.999359130859375,0.0035858154296875,-0.0082244873046875
1760555102772137500,10.886137451171875,-1.0024566650390625,0.0061492919921875,-0.00506591796875
1760555102782142500,10.896142578125,-1.0039520263671875,0.0066070556640625,0.0059967041015625
1760555102792146200,10.906146240234374,-1.0041046142578125,0.00787353515625,0.0157012939453125
1760555102802151200,10.916151123046875,-0.9959869384765625,0.00408935546875,0.0170440673828125
1760555102812155100,10.926155029296876,-0.990447998046875,0.00048828125,0.0110626220703125
1760555102822159400,10.936159423828125,-0.9948883056640625,-0.0070648193359375,-0.0037841796875
1760555102832164400,10.946164306640625,-0.998504638671875,-0.00543212890625,-0.01190185546875
1760555102842168300,10.956168212890624,-0.9994354248046875,-0.0046539306640625,-0.014404296875
1760555102852173300,10.96617333984375,-1.00506591796875,-0.0020751953125,-0.0168304443359375
1760555102862177300,10.97617724609375,-1.000885009765625,-0.00537109375,-0.005706787109375
1760555102872181500,10.986181396484374,-0.994842529296875,-0.0031890869140625,0.004058837890625
1760555102882186500,10.9961865234375,-0.9969940185546875,0.0048065185546875,0.0102996826171875
1760555102892190200,11.006190185546876,-0.993194580078125,0.005035400390625,0.009979248046875
1760555102902195200,11.0161953125,-0.99566650390625,0.004608154296875,0.001373291015625
1760555102912199200,11.02619921875,-1.00189208984375,0.0070037841796875,-0.0091400146484375
1760555102922203400,11.036203369140624,-1.0115203857421875,0.003692626953125,-0.016693115234375
1760555102932208400,11.04620849609375,-1.0029754638671875,-0.0006103515625,-0.006317138671875
1760555102942212400,11.05621240234375,-0.9953155517578125,0.0033416748046875,0.005126953125
1760555102952217300,11.06621728515625,-0.997894287109375,0.0055389404296875,0.0073089599609375
1760555102962221300,11.07622119140625,-0.9972381591796875,0.00146484375,0.0035247802734375
1760555102972225500,11.0862255859375,-0.998870849609375,0.0016326904296875,-0.0044403076171875
1760555102982230500,11.09623046875,-1.00811767578125,-0.0031585693359375,-0.0216522216796875
1760555102992234200,11.106234130859375,-0.996826171875,-0.0059661865234375,-0.017242431640625
1760555103002239200,11.1162392578125,-0.987762451171875,-0.010223388671875,-0.0140380859375
1760555103012243200,11.1262431640625,-1.002716064453125,-0.0086517333984375,-0.0124359130859375
1760555103022247400,11.136247314453126,-1.0002288818359375,-0.0058441162109375,-0.0089569091796875
1760555103032252400,11.14625244140625,-0.99493408203125,0.0013885498046875,-0.0036163330078125
1760555103042256400,11.15625634765625,-1.00225830078125,0.004180908203125,-0.004852294921875
1760555103052261400,11.166261474609374,-1.0033111572265625,-0.0024261474609375,-0.0086822509765625
1760555103062265900,11.176265869140625,-0.995391845703125,0.000457763671875,-0.0052490234375
1760555103072269800,11.186269775390626,-0.9995269775390625,-0.0006866455078125,-0.0056304931640625
1760555103082274800,11.19627490234375,-1.000885009765625,-0.00006103515625,-0.0098724365234375
1760555103092279000,11.206279052734375,-0.9989013671875,0.0028076171875,-0.0064239501953125
1760555103102284000,11.216283935546874,-1.0019683837890625,-0.002685546875,-0.007049560546875
1760555103112287700,11.226287841796875,-0.997772216796875,-0.0014495849609375,-0.0072479248046875
1760555103122291700,11.236291748046876,-0.9962005615234375,-0.0065765380859375,-0.0039520263671875
1760555103132296700,11.246296630859375,-0.9964599609375,-0.008453369140625,-0.005584716796875
1760555103142301000,11.256301025390625,-0.9977569580078125,-0.0077362060546875,-0.0122528076171875
1760555103152306000,11.266305908203124,-1.0016326904296875,-0.0058135986328125,-0.0098724365234375
1760555103162310000,11.276309814453125,-0.9956817626953125,-0.004669189453125,-0.0078125
1760555103172313900,11.28631396484375,-0.9999542236328125,-0.0042877197265625,-0.004241943359375
1760555103182318800,11.29631884765625,-0.9976806640625,-0.0023193359375,0.0003204345703125
1760555103192323000,11.306322998046875,-0.99615478515625,-0.0025482177734375,-0.004852294921875
1760555103202328000,11.316328125,-1.0021209716796875,0.0027313232421875,-0.004180908203125
1760555103212331800,11.326331787109375,-0.9988250732421875,0.002960205078125,-0.0045623779296875
1760555103222335700,11.336335693359375,-0.9995880126953125,-0.000518798828125,-0.0143280029296875
1760555103232340700,11.3463408203125,-0.997589111328125,0.0002288818359375,-0.014556884765625
1760555103242345000,11.356344970703125,-1.000152587890625,0.000396728515625,-0.0175018310546875
1760555103252350000,11.366349853515626,-0.9993438720703125,-0.00189208984375,-0.01580810546875
1760555103262354000,11.37635400390625,-0.9981842041015625,-0.0036468505859375,-0.00982666015625
1760555103272358000,11.38635791015625,-0.99847412109375,-0.0030670166015625,-0.0094451904296875
1760555103282363000,11.39636279296875,-1.000335693359375,0.0005950927734375,-0.0015106201171875
1760555103292366800,11.406366943359375,-1.0002288818359375,0.0001373291015625,0.00341796875
1760555103302371800,11.416371826171876,-0.9965362548828125,-0.001861572265625,0.00103759765625
1760555103312375800,11.426375732421874,-0.9975433349609375,-0.0018463134765625,-0.0004730224609375
1760555103322379800,11.4363798828125,-0.9946136474609375,-0.0110321044921875,-0.0080718994140625
1760555103332384800,11.446384765625,-0.9951019287109375,-0.0056610107421875,-0.015533447265625
1760555103342389000,11.456388916015625,-1.004486083984375,-0.00115966796875,-0.0215301513671875
1760555103352394000,11.46639404296875,-1.0040283203125,0.005889892578125,-0.023712158203125
1760555103362398000,11.47639794921875,-0.9992523193359375,0.0073699951171875,-0.01556396484375
1760555103372402000,11.48640185546875,-1.0004119873046875,0.002716064453125,-0.0111541748046875
1760555103382407000,11.496406982421876,-1.0013580322265625,0.005126953125,-0.0164947509765625
1760555103392411000,11.506410888671875,-1.00146484375,0.00714111328125,-0.0153350830078125
1760555103402415900,11.516415771484375,-1.000518798828125,0.0012054443359375,-0.0177459716796875
1760555103412419800,11.526419921875,-0.9991302490234375,0.0003204345703125,-0.013458251953125
1760555103422423800,11.536423828125,-0.997833251953125,0.0016326904296875,-0.00811767578125
1760555103432428800,11.5464287109375,-0.9995574951171875,-0.003204345703125,-0.008880615234375
1760555103442432800,11.556432861328124,-0.9948272705078125,-0.0037994384765625,-0.0058746337890625
1760555103452437800,11.566437744140625,-0.99896240234375,-0.0029449462890625,-0.008056640625
1760555103462442000,11.57644189453125,-0.9987640380859375,-0.0036468505859375,-0.0140380859375
1760555103472446000,11.586446044921875,-0.996734619140625,-0.00323486328125,-0.018280029296875
1760555103482451000,11.596450927734375,-0.9994964599609375,-0.0042877197265625,-0.02325439453125
1760555103492454700,11.60645458984375,-0.995025634765625,-0.0068359375,-0.0242156982421875
1760555103502459600,11.616459716796875,-0.998016357421875,-0.0053863525390625,-0.021636962890625
1760555103512464000,11.6264638671875,-0.9995880126953125,0.0003662109375,-0.0147857666015625
1760555103522467800,11.6364677734375,-0.997589111328125,-0.002838134765625,-0.0064697265625
1760555103532472800,11.646472900390625,-0.998626708984375,-0.0001983642578125,-0.0067596435546875
1760555103542476800,11.656476806640624,-0.9966278076171875,-0.0014801025390625,-0.002899169921875
1760555103552481800,11.666481689453125,-0.99993896484375,-0.000518798828125,-0.003082275390625
1760555103562486000,11.676486083984376,-0.999053955078125,-0.0010833740234375,-0.0043182373046875
1760555103572489700,11.68648974609375,-0.998016357421875,-0.005706787109375,-0.008636474609375
1760555103582494700,11.69649462890625,-0.9939422607421875,-0.0128326416015625,-0.0107879638671875
1760555103592498700,11.706498779296876,-0.991607666015625,-0.018951416015625,-0.013092041015625
1760555103602503700,11.716503662109375,-0.9982452392578125,-0.0074005126953125,-0.020721435546875
1760555103612508000,11.7265078125,-1.0041046142578125,0.00225830078125,-0.0200958251953125
1760555103622511900,11.736511962890624,-0.9985198974609375,0.0027618408203125,-0.0145111083984375
1760555103632516900,11.746516845703125,-1.003326416015625,0.004425048828125,-0.0144195556640625
1760555103642520800,11.756520751953126,-0.9988250732421875,0.0045623779296875,-0.00628662109375
1760555103652525800,11.76652587890625,-1.00079345703125,0.003143310546875,-0.00811767578125
1760555103662530000,11.776530029296875,-1.0027008056640625,0.0018157958984375,-0.0089111328125
1760555103672533800,11.78653369140625,-0.99664306640625,0.001373291015625,-0.002288818359375
1760555103682538800,11.796538818359375,-1.002838134765625,0.0025634765625,-0.00555419921875
1760555103692542700,11.806542724609375,-0.9983978271484375,0.0023193359375,-0.00262451171875
1760555103702547700,11.816547607421874,-0.9983367919921875,-0.001129150390625,-0.0032196044921875
1760555103712552000,11.826552001953125,-0.998992919921875,-0.004547119140625,-0.012451171875
1760555103722556000,11.836555908203126,-0.9958648681640625,-0.0055389404296875,-0.01239013671875
1760555103732561000,11.846560791015625,-0.9994964599609375,-0.005126953125,-0.0142974853515625
1760555103742564900,11.85656494140625,-0.9976959228515625,-0.0055999755859375,-0.015167236328125
1760555103752569000,11.866569091796874,-0.99853515625,-0.0049285888671875,-0.0149078369140625
1760555103762574000,11.876573974609375,-0.9959869384765625,-0.0094451904296875,-0.0057525634765625
1760555103772577800,11.886577880859376,-0.994903564453125,-0.0115509033203125,-0.0048980712890625
1760555103782582800,11.896582763671875,-1.0001983642578125,-0.0074005126953125,-0.0105133056640625
1760555103792586800,11.906586669921875,-0.998199462890625,-0.0050811767578125,-0.006317138671875
1760555103802590700,11.9165908203125,-0.996795654296875,-0.005462646484375,-0.004791259765625
1760555103812596000,11.926595947265625,-0.9970855712890625,-0.00848388671875,-0.0020751953125
1760555103822600000,11.936599853515625,-0.999542236328125,0.00079345703125,0.00054931640625
1760555103832605000,11.94660498046875,-1.0039215087890625,0.0059814453125,-0.0032196044921875
1760555103842609000,11.95660888671875,-0.9990997314453125,0.0020294189453125,-0.003143310546875
1760555103852612900,11.96661279296875,-0.998382568359375,-0.002685546875,-0.0074615478515625
1760555103862617900,11.976617919921875,-1.00103759765625,0.001312255859375,-0.0114898681640625
1760555103872621800,11.986621826171875,-1.001312255859375,0.00189208984375,-0.014129638671875
1760555103882626800,11.996626708984374,-0.9997406005859375,-0.0020751953125,-0.0158233642578125
1760555103892630800,12.006630859375,-0.998382568359375,-0.002288818359375,-0.01171875
1760555103902634800,12.016634765625,-0.99957275390625,-0.0048828125,-0.0096893310546875
1760555103912639700,12.0266396484375,-0.9957733154296875,-0.004119873046875,-0.0015716552734375
1760555103922644000,12.03664404296875,-0.9980316162109375,-0.0021514892578125,0.0042266845703125
1760555103932649000,12.04664892578125,-0.9997406005859375,-0.001373291015625,-0.0017242431640625
1760555103942653000,12.05665283203125,-0.9973602294921875,-0.004119873046875,-0.0006256103515625
1760555103952656600,12.06665673828125,-0.9954833984375,-0.00616455078125,-0.005615234375
1760555103962661600,12.07666162109375,-1.0016326904296875,-0.0054473876953125,-0.0153656005859375
1760555103972665900,12.086665771484375,-0.9974517822265625,-0.004180908203125,-0.0117645263671875
1760555103982670800,12.0966708984375,-0.9953765869140625,-0.0058135986328125,-0.010986328125
1760555103992674800,12.1066748046875,-0.9990386962890625,-0.0060272216796875,-0.0083160400390625
1760555104002678800,12.1166787109375,-0.996368408203125,-0.0016326904296875,0.0000762939453125
1760555104012683800,12.126683837890624,-0.9981231689453125,-0.0026702880859375,0.00244140625
1760555104022688000,12.13668798828125,-0.9996337890625,-0.004364013671875,0.0023040771484375
1760555104032693000,12.14669287109375,-0.995452880859375,-0.0081939697265625,-0.00360107421875
1760555104042697000,12.156697021484375,-0.9980316162109375,-0.0048065185546875,-0.007476806640625
1760555104052700700,12.16670068359375,-0.998626708984375,-0.0022430419921875,-0.00445556640625
1760555104062705700,12.17670556640625,-0.9971771240234375,-0.0048980712890625,-0.0061798095703125
1760555104072710000,12.1867099609375,-1.0000762939453125,-0.0008087158203125,-0.008270263671875
1760555104082715000,12.19671484375,-0.999359130859375,-0.0010833740234375,-0.0093536376953125
1760555104092718600,12.206718505859374,-0.9983367919921875,-0.0045318603515625,-0.0083770751953125
1760555104102722600,12.21672265625,-0.995330810546875,-0.00830078125,0.00390625
1760555104112727600,12.2267275390625,-0.9925994873046875,-0.0139312744140625,0.0052337646484375
1760555104122731800,12.236731689453125,-0.999908447265625,-0.0081787109375,0.0033111572265625
1760555104132736800,12.24673681640625,-1.0002288818359375,-0.00018310546875,0.00177001953125
1760555104142740700,12.25674072265625,-1.0003509521484375,0.00079345703125,-0.004302978515625
1760555104152744700,12.26674462890625,-0.9987640380859375,-0.003692626953125,0.00091552734375
1760555104162749700,12.276749755859376,-0.9937286376953125,-0.0061187744140625,0.000518798828125
1760555104172753700,12.286753662109374,-1.0016021728515625,0.000732421875,-0.0003204345703125
1760555104182758700,12.296758544921875,-1.0018768310546875,0.0054473876953125,-0.0047607421875
1760555104192762600,12.3067626953125,-0.9995880126953125,-0.0022430419921875,-0.0147705078125
1760555104202766600,12.3167666015625,-0.998260498046875,-0.00201416015625,-0.0145263671875
1760555104212771600,12.326771484375,-1.00390625,0.0011749267578125,-0.015045166015625
1760555104222775800,12.33677587890625,-0.9982757568359375,0.0016021728515625,-0.0057220458984375
1760555104232780800,12.34678076171875,-0.9991302490234375,-0.0010833740234375,-0.002410888671875
1760555104242784800,12.35678466796875,-1.0004119873046875,-0.004180908203125,-0.0023956298828125
1760555104252789800,12.366789794921875,-0.99456787109375,-0.004180908203125,0.001190185546875
1760555104262793700,12.376793701171875,-1.0026702880859375,-0.0028839111328125,-0.004608154296875
1760555104272797700,12.386797607421874,-0.997283935546875,-0.002288818359375,-0.0066986083984375
1760555104282802700,12.396802734375,-0.9966278076171875,-0.0049896240234375,-0.007598876953125
1760555104292806700,12.406806640625,-0.997528076171875,-0.007537841796875,-0.0108642578125
1760555104302811600,12.416811767578125,-0.9944915771484375,-0.0101165771484375,-0.00537109375
1760555104312815600,12.426815673828125,-0.997894287109375,-0.0088348388671875,-0.0018310546875
1760555104322819600,12.436819580078126,-0.997772216796875,-0.000579833984375,0.00616455078125
1760555104332824800,12.446824951171875,-0.99798583984375,-0.00213623046875,0.001220703125
1760555104342828800,12.456828857421876,-0.9998931884765625,-0.0043792724609375,-0.003143310546875
1760555104352832800,12.466832763671874,-1.0001373291015625,0.00225830078125,-0.00762939453125
1760555104362837800,12.476837646484375,-1.0033416748046875,0.000213623046875,-0.018035888671875
1760555104372841500,12.486841552734376,-0.9981536865234375,-0.0074005126953125,-0.021697998046875
1760555104382846700,12.4968466796875,-1.0001220703125,-0.0040130615234375,-0.022369384765625
1760555104392850700,12.5068505859375,-1.000946044921875,-0.00164794921875,-0.0115509033203125
1760555104402855700,12.516855712890624,-0.997650146484375,-0.0020294189453125,-0.0057373046875
1760555104412859600,12.526859619140625,-0.9980621337890625,-0.00250244140625,-0.0037994384765625
1760555104422863600,12.536863525390626,-0.99822998046875,-0.001556396484375,-0.000244140625
1760555104432868600,12.54686865234375,-0.9967193603515625,-0.0082244873046875,-0.0045623779296875
1760555104442872800,12.556872802734375,-0.9982452392578125,-0.0050048828125,-0.0039215087890625
1760555104452876800,12.566876708984376,-0.99951171875,-0.0071258544921875,-0.0077972412109375
1760555104462881800,12.5768818359375,-0.997283935546875,-0.0111541748046875,-0.013763427734375
1760555104472885500,12.586885498046875,-0.99713134765625,-0.007598876953125,-0.0116424560546875
1760555104482890500,12.596890380859374,-0.99774169921875,-0.0069427490234375,-0.00946044921875
1760555104492894700,12.606894775390625,-0.9961395263671875,-0.0054168701171875,-0.008026123046875
1760555104502899700,12.616899658203126,-1.0014495849609375,0.001495361328125,-0.008819580078125
1760555104512903700,12.626903564453125,-1.002197265625,0.0046234130859375,-0.0106048583984375
1760555104522907600,12.63690771484375,-1.0014801025390625,-0.0005645751953125,-0.0172882080078125
1760555104532912600,12.64691259765625,-0.9997711181640625,-0.0003814697265625,-0.0196075439453125
1760555104542916900,12.656916748046875,-1.0025177001953125,0.0026702880859375,-0.017730712890625
1760555104552921900,12.666921875,-1.0016937255859375,0.0008697509765625,-0.0140228271484375
1760555104562925600,12.676925537109375,-0.9981689453125,-0.0040130615234375,-0.00970458984375
1760555104572929500,12.686929443359375,-0.998260498046875,-0.006072998046875,-0.005950927734375
1760555104582934500,12.6969345703125,-0.9971771240234375,-0.0072174072265625,-0.0055084228515625
1760555104592938800,12.706938720703125,-0.9976806640625,-0.0096282958984375,-0.006256103515625
1760555104602943700,12.71694384765625,-0.99566650390625,-0.0113677978515625,-0.0073089599609375
1760555104612947700,12.72694775390625,-0.9983978271484375,-0.008941650390625,-0.013946533203125
1760555104622951700,12.73695166015625,-0.993743896484375,-0.0137939453125,-0.0211181640625
1760555104632956700,12.746956787109376,-0.9998779296875,-0.003143310546875,-0.01751708984375
1760555104642961000,12.7569609375,-1.000885009765625,-0.00140380859375,-0.0170440673828125
1760555104652966000,12.7669658203125,-0.999359130859375,-0.0019989013671875,-0.020111083984375
1760555104662969600,12.776969482421874,-0.99871826171875,0.001617431640625,-0.0115966796875
1760555104672973600,12.7869736328125,-1.0038909912109375,0.0020904541015625,-0.0137786865234375
1760555104682978600,12.796978515625,-0.9969940185546875,-0.0014801025390625,-0.0174713134765625
1760555104692982800,12.806982666015625,-0.998138427734375,-0.0072784423828125,-0.0171356201171875
1760555104702987800,12.81698779296875,-0.9999847412109375,-0.0045928955078125,-0.014617919921875
