time,seconds_elapsed,z,y,x
1760555091959898600,0.073898681640625,0.28210195440053937,-0.1173771739476826,0.3550786355450749
1760555091969902800,0.08390283203125,0.11436638389229774,-0.1378139680404216,0.1877256163473241
1760555091979906800,0.09390673828125,-0.0797474904537201,-0.057572488091257396,0.011819192439666948
1760555091989911800,0.103911865234375,-0.06088672263920307,-0.09043297072229907,-0.06890201558414846
1760555091999915800,0.113915771484375,-0.2935813797920942,-0.08503730395752936,-0.21853538156021385
1760555092009920000,0.123919921875,0.22699089255332947,-0.1333901602488011,0.21803435496920717
1760555092019925000,0.133925048828125,0.18029168522059916,-0.1470824667837005,0.21670071347896008
1760555092029929000,0.143928955078125,-0.19754677140414714,-0.1182805799276568,-0.07322399326937738
1760555092039932700,0.1539326171875,-0.031013562422990797,-0.08292313394830561,0.08274293680950068
1760555092049938000,0.16393798828125,0.2065887405157089,-0.13521965896459295,0.3183826801041141
1760555092059942000,0.17394189453125,0.014900047490000724,-0.14086595775587482,0.10366334970071911
1760555092069947000,0.18394677734375,-0.12711363726258276,-0.13560870394795202,-0.017967007587366968
1760555092079951000,0.193951171875,0.20281448267400262,-0.16348854405563323,0.2640612525309436
1760555092089955000,0.203955078125,0.11662439195215701,-0.17139033015612512,0.1471127157914918
1760555092099960000,0.2139599609375,-0.13685001837909222,-0.13973618654096498,-0.14113002465269528
1760555092109964000,0.223964111328125,0.11603168675601482,-0.22289050802979618,0.03442700357869034
1760555092119968300,0.23396826171875,0.12263619958758354,-0.20642019728207958,0.03365587307572132
1760555092129973200,0.24397314453125,-0.157915602761507,-0.07641493936437181,-0.10766422850568778
1760555092139977000,0.25397705078125,0.02762450450658798,-0.015898789903498255,0.09342731196638196
1760555092149981000,0.26398095703125,0.060251347345113754,-0.035104453032393935,0.12086543618855065
1760555092159986000,0.27398583984375,-0.09790800104439258,-0.10816341933263465,-0.019540502840140833
1760555092169990100,0.283990234375,0.09766133280694485,-0.1546147163189016,0.12120853227148763
1760555092179994000,0.293994140625,0.03782324243783951,-0.15705416362658142,0.0628253534184303
1760555092189999000,0.3039990234375,-0.08231997129023075,-0.14048795475633813,-0.06983135515640024
1760555092200003000,0.314003173828125,0.08991407968103884,-0.1547485900979489,0.10427153559378348
1760555092210008000,0.324008056640625,0.04413900145590305,-0.12266704225041902,0.15544713028874246
1760555092220012000,0.334011962890625,-0.06419628557860851,-0.09519437643783167,0.08391658369875513
1760555092230016000,0.34401611328125,0.04682546406090259,-0.03889462996243965,0.16552012294847518
1760555092240021000,0.35402099609375,-0.024250644159317016,-0.05696514244840946,0.08147866162788123
1760555092250025000,0.36402490234375,-0.05642682062089443,-0.08944925691457464,-0.024496166185871696
1760555092260029200,0.374029296875,0.06507189936935902,-0.10733774563083424,0.06040395322409458
1760555092270034200,0.3840341796875,-0.007500000366568565,-0.11092899332214146,0.05466832761496771
1760555092280038100,0.3940380859375,-0.009151859226822852,-0.14434926982698962,0.04998113334653899
1760555092290043100,0.404043212890625,0.05473579879403114,-0.11506020224220119,0.11352861789390443
1760555092300047000,0.414047119140625,-0.025175357788801193,-0.09355797087503596,0.07695827986029907
1760555092310051000,0.424051025390625,-0.005582184046506881,-0.048152036489546295,0.03446013181344606
1760555092320056000,0.43405615234375,0.027779402807354924,-0.1189357741670683,0.041824755997047755
1760555092330060000,0.44406005859375,0.02747720499038696,-0.13430942138503305,0.023230324668250976
1760555092340064000,0.45406396484375,0.025835867524147033,-0.13813247767137363,-0.02250470924086403
1760555092350069000,0.464069091796875,0.01881459058523178,-0.1806606829297729,-0.022441818338795563
1760555092360073200,0.4740732421875,0.020468787533044815,-0.15981876950170845,-0.0014068688399507664
1760555092370077200,0.4840771484375,0.011348492488265038,-0.11725718256351537,0.05959344055880792
1760555092380082200,0.494082275390625,0.015242577317357063,-0.12682649088427422,0.11805069842822849
1760555092390086100,0.504086181640625,0.03394727778732776,-0.1059738003338687,0.14692277357680722
1760555092400091100,0.514091064453125,0.008359247544407844,-0.06122540740850381,0.12150745128598063
1760555092410095000,0.52409521484375,0.012248656198382377,-0.13855074874921702,0.07788327661757356
1760555092420099000,0.53409912109375,0.037837270963191984,-0.1373792664175853,0.08182082612905651
1760555092430104000,0.54410400390625,0.02990764700770378,-0.13221131659462115,0.0628705077344086
1760555092440108000,0.55410791015625,0.02706336349248886,-0.1206313077722676,0.07204800829256419
1760555092450112000,0.564112060546875,0.022276129215955735,-0.10143314296323805,0.08864807833321392
1760555092460117000,0.574116943359375,0.046371875074505804,-0.1282506054032594,0.04328211063193157
1760555092470121200,0.584121337890625,0.01255962184369564,-0.1355930405879393,0.020461700205132365
1760555092480126200,0.594126220703125,-0.00808452225625515,-0.1154024124091491,0.02265017299300525
1760555092490130000,0.6041298828125,-0.008978840747475623,-0.12271437939032911,0.05227653254102915
1760555092500134000,0.6141337890625,0.014364040917158125,-0.09721386303408071,0.07913482018178328
1760555092510139000,0.624138916015625,-0.009583236381411552,-0.07153960667927749,0.10182089103865437
1760555092520143000,0.63414306640625,0.009562778115272522,-0.10469753332035615,0.11141475841193459
1760555092530147000,0.64414697265625,0.018230068695545196,-0.10451689779013394,0.10856054715774953
1760555092540152000,0.654152099609375,0.002803366982936859,-0.0581956751906313,0.07776172346398234
1760555092550156000,0.664156005859375,-0.006484685844182968,-0.07110187284913845,-0.012683033594232984
1760555092560160300,0.67416015625,0.012658990564942359,-0.1285354502266273,-0.037670157068246043
1760555092570165200,0.684165283203125,0.02372106732726097,-0.1445574235517997,0.05190068039938341
1760555092580169000,0.6941689453125,0.028496611166000364,-0.10663503158842212,0.08665145202274434
1760555092590174000,0.704174072265625,0.03371931425035,-0.11234182839528657,0.12767242192281408
1760555092600178000,0.714177978515625,0.028616438153386114,-0.12056805154401808,0.1289932404641062
1760555092610182100,0.72418212890625,-0.004165887507796288,-0.12690008584344759,0.04491679459509905
1760555092620187100,0.734187255859375,-0.008517068454623222,-0.13470875030038879,-0.00024780759847490115
1760555092630191000,0.744191162109375,0.035168344014883036,-0.11923419085806235,0.01413689936408773
1760555092640195000,0.754195068359375,0.009869067585468292,-0.13030614056042394,0.007817683447035961
1760555092650200000,0.764199951171875,-0.00017477204501628875,-0.08901531334356404,0.04540338623537682
1760555092660204300,0.774204345703125,-0.017706921604275703,0.014560632068337872,0.08387092705927789
1760555092670209300,0.784209228515625,0.008309563183784485,-0.08046732002771459,0.14493185548791662
1760555092680213000,0.794212890625,0.0961380687624216,-0.21053218091186135,0.11095022790641523
1760555092690217000,0.804217041015625,0.05394435615539551,-0.250256069339253,0.07600651839368511
1760555092700222000,0.814221923828125,0.08478256201148032,-0.24443540036175398,0.10295711026065982
1760555092710226200,0.82422607421875,0.07702303392589092,-0.21964516943302004,0.04704395651663653
1760555092720230100,0.834230224609375,0.005071311914920807,-0.14584294245084747,0.03308506690084469
1760555092730235100,0.844235107421875,0.05342471619546413,-0.14552536440165711,0.12934817311530933
1760555092740239000,0.854239013671875,0.014382745617628097,-0.09778246583542786,0.11661798047767952
1760555092750243000,0.8642431640625,-0.05295417607426643,0.01021938799363561,0.06859203175294679
1760555092760248000,0.874248046875,-0.024078210201859473,-0.01203606376047246,0.09620274976277723
1760555092770252000,0.884251953125,-0.007622165441513061,-0.0989188494542148,0.005476113873126451
1760555092780257000,0.894257080078125,0.006291793620586395,-0.09183918425841256,-0.01914345264683943
1760555092790261000,0.904260986328125,0.04444762901365757,-0.1236119584177155,0.035882296403939834
1760555092800265000,0.914264892578125,-0.0037391865283250805,-0.11396314598680474,0.03824203410549089
1760555092810270000,0.92427001953125,0.008975333616137504,-0.06418004682986066,0.04918413774995133
1760555092820274200,0.934274169921875,0.017950082710385323,-0.11924422819488681,0.061884802898997435
1760555092830278100,0.944278076171875,0.014206220006942749,-0.13749274586257523,0.0991195139923133
1760555092840283100,0.954283203125,0.04038929353356361,-0.13600730221094562,0.14079563246602192
1760555092850286800,0.964286865234375,0.015699088913202285,-0.12768083355813287,0.07780828428575769
1760555092860291800,0.974291748046875,0.040838206344842906,-0.15758817917173729,0.06515467314883135
1760555092870296000,0.984296142578125,0.016444938844442366,-0.12231032863408327,0.05248427527388558
1760555092880300000,0.994300048828125,-0.012139935126900672,-0.06874845072394237,0.05336646493589505
1760555092890305000,1.004304931640625,0.04471884717047214,-0.10209529666639863,0.09064454938005656
1760555092900309000,1.01430908203125,0.02601414670050144,-0.109273262004368,0.05693477470960934
1760555092910313200,1.024313232421875,0.021380641680955884,-0.17188078055419026,0.03551245616126107
1760555092920318200,1.034318115234375,0.04398585672080516,-0.19233579529020933,0.01460145156084909
1760555092930322200,1.044322265625,-0.01750526155233383,-0.0932508502877783,-0.028502100191870702
1760555092940326000,1.054325927734375,0.003905775266885757,-0.1131604421686381,-0.018262102093402063
1760555092950331000,1.064330810546875,0.029807109242677685,-0.17365591873424127,0.010419414352561579
1760555092960335000,1.074335205078125,0.015004092386364937,-0.13352962351841852,0.09671216058963909
1760555092970340000,1.084340087890625,0.02339081245958805,-0.0656864693374373,0.188689054552
1760555092980344000,1.094343994140625,-0.004736380872130394,-0.08030538919796236,0.12146243396732025
1760555092990348000,1.10434814453125,0.007241641691327095,-0.12008048722278326,0.0692698442495428
1760555093000353000,1.11435302734375,0.04376256935894489,-0.16101566940238698,0.0662793845961336
1760555093010357200,1.124357177734375,0.0035211598634719847,-0.15865213687513022,-0.013589708101883298
1760555093020361000,1.13436083984375,0.01625438470840454,-0.14812950988491064,-0.024035859764320773
1760555093030366000,1.144365966796875,0.02479775664806366,-0.156497424792964,0.013122540397994452
1760555093040370000,1.154369873046875,0.014336568388342857,-0.16637852987609802,-0.014568603028950746
1760555093050376200,1.164376220703125,0.03215864080488682,-0.13757979395836592,0.03307461857206653
1760555093060380000,1.1743798828125,0.03621230010986328,-0.1611069278824143,0.08121973669705912
1760555093070384000,1.184384033203125,0.0202121824234724,-0.07849502444090321,0.1614852048765868
1760555093080389000,1.19438916015625,0.0063005614489316936,-0.03933527726887259,0.17777387544708326
1760555093090393000,1.20439306640625,-0.014199790266156196,-0.06974259002755862,0.15200248799389227
1760555093100397000,1.21439697265625,0.023508301359415052,-0.03102073651587125,0.18660539841204882
1760555093110402000,1.224402099609375,-0.007024199548363685,-0.02212386583026964,0.21690549706974996
1760555093120406300,1.23440625,-0.032170915764570235,-0.051272072772798126,0.10904738995977677
1760555093130411300,1.244411376953125,0.04967617731690407,-0.13262162356171756,0.10486671587480231
1760555093140415000,1.2544150390625,0.030665187376737593,-0.12559017228865996,0.04950367942736484
1760555093150419000,1.2644189453125,-0.015730068573355675,-0.1460648598395288,-0.01771684021009132
1760555093160424000,1.274423828125,0.012844868525862693,-0.13940760304057037,0.019975090298545547
1760555093170428200,1.28442822265625,0.00041793315112590785,-0.08172576825674623,-0.0006734462779102614
1760555093180432100,1.29443212890625,0.02735211730599403,-0.1230629553659819,0.0047833441235270585
1760555093190437000,1.30443701171875,0.06536182222664357,-0.18149817493353038,0.0453566975494381
1760555093200441000,1.314441162109375,0.02361643790900707,-0.15174942654827608,0.06764653563033789
1760555093210445000,1.324445068359375,0.03693535368740558,-0.11073525171517394,0.1806149440919049
1760555093220450000,1.334449951171875,0.027801614639163016,-0.06935603382880799,0.2205679651000537
1760555093230454000,1.3444541015625,-0.04104512709379196,-0.02471841693469323,0.136369769714633
1760555093240459000,1.354458984375,-0.008141805401444435,-0.04338383570704609,0.114313621658599
1760555093250463000,1.364462890625,0.012938392028212547,-0.12007761941226198,0.06799732182938605
1760555093260467000,1.374467041015625,-0.021502222234010694,-0.09667900723870843,0.013980811469943727
1760555093270472000,1.384471923828125,-0.007159808626770973,-0.06191996554392389,-0.000058093712653499094
1760555093280476200,1.39447607421875,-0.022142273703217506,-0.09563764495961367,-0.05032161278070416
1760555093290480000,1.404480224609375,0.029021511822938918,-0.156395535321068,-0.048772506475448604
1760555093300485000,1.414485107421875,0.03904138605594635,-0.17369407705385237,-0.01936707565212855
1760555093310489000,1.424489013671875,0.022283143478631973,-0.133944634060096,-0.014834955497691408
1760555093320494000,1.434494140625,0.08363689910769462,-0.2227215629373677,0.14368806597189976
1760555093330498000,1.444498046875,0.09231821821331977,-0.1823670667225495,0.23097221727445721
1760555093340502000,1.454501953125,-0.023206688064336775,-0.08507106009665875,0.17648805515393615
1760555093350507000,1.464507080078125,0.030197569864988325,-0.08587744457609951,0.21543686755560337
1760555093360511000,1.474510986328125,0.0008545710027217865,-0.055374516822677106,0.0609237484476529
1760555093370515200,1.48451513671875,-0.049748073509335515,-0.06547690910683013,0.000410197369242087
1760555093380520200,1.494520263671875,0.044347675770521164,-0.04466205721562728,0.08930696236705407
1760555093390524200,1.504524169921875,-0.024954408514499662,-0.11026766160288826,0.008026280129840597
1760555093400529200,1.514529052734375,0.013176876959204673,-0.09473406544970348,0.025205903624114578
1760555093410532900,1.524532958984375,0.04743687395751476,-0.15370375722013413,0.01609128483487293
1760555093420537000,1.534537109375,0.0009007482320070266,-0.19600547851258887,-0.02127417649864219
1760555093430542000,1.5445419921875,0.10878887602090835,-0.22823062694873658,0.09036814359147101
1760555093440546000,1.554546142578125,0.03682312548458576,-0.14232652269457466,0.09011047903597354
1760555093450550000,1.564550048828125,-0.03470306459069252,-0.10585620183618738,0.04428061101683415
1760555093460555000,1.574554931640625,0.05687105725705623,-0.11012761381138116,0.12397689187312498
1760555093470559200,1.584559326171875,0.020063129341602325,-0.0784646293026395,0.08870604646499268
1760555093480564200,1.594564208984375,0.0033037177205085754,-0.1131563505154103,0.050039841263834386
1760555093490568200,1.604568115234375,0.04131517620682716,-0.13205834538945926,0.04244239927162416
1760555093500572000,1.614572021484375,-0.016891513568162916,-0.10655353645058348,0.02445558758031111
1760555093510577000,1.624576904296875,-0.005081248787045478,-0.04251969315838069,0.0659910554743139
1760555093520581000,1.6345810546875,-0.011682254487276077,-0.01852280456442386,0.10956312092957086
1760555093530585000,1.644585205078125,-0.013052373796701431,-0.05380152275175787,0.10996986596640199
1760555093540590000,1.654590087890625,0.021337971583008764,-0.08027593477461487,0.08639260929031298
1760555093550594000,1.664593994140625,-0.0023246435552835465,-0.09640403535538353,0.04588797314823605
1760555093560599000,1.67459912109375,0.06680383772850036,-0.14378243885762057,-0.014204228979256004
1760555093570603000,1.68460302734375,0.06712766285538672,-0.2916383194329217,-0.060487928013387135
1760555093580607200,1.694607177734375,0.07388590494394302,-0.29894250496644525,0.01917783440705389
1760555093590612200,1.7046123046875,0.06462883177697658,-0.22285799399968234,0.1774626723397523
1760555093600616000,1.714615966796875,0.014822306078672408,-0.11265408181538805,0.15928700071256607
1760555093610620000,1.724619873046875,-0.008216624203324318,-0.10726158425523899,0.14264463959988205
1760555093620625000,1.734625,-0.01061725560426712,-0.01358552169217728,0.15623497446449472
1760555093630629000,1.744629150390625,-0.0338280353218317,-0.009576651376998051,0.13876463809506967
1760555093640634000,1.754634033203125,0.03977028485238552,-0.1018401345952414,0.13974089011554605
1760555093650638000,1.76463818359375,0.03257891204357147,-0.11730954293841496,0.03827486779601313
1760555093660642000,1.77464208984375,-0.00409691392481327,-0.17197823131298645,0.01899664175440557
1760555093670647000,1.78464697265625,0.06427168890237808,-0.1306863081175834,0.0682832991639152
1760555093680651000,1.794651123046875,-0.013546294793486595,-0.10733858588105066,0.022618147586658595
1760555093690655000,1.804655029296875,-0.038564416193962094,-0.02204565406148322,0.08388306502164342
1760555093700660000,1.814659912109375,0.03741933781206608,-0.07120876728971488,0.15931673826370388
1760555093710664000,1.824663818359375,0.041725510573387144,-0.14065584953599608,0.14071339754266662
1760555093720668200,1.834668212890625,0.0397363825827837,-0.21368290002774445,0.13499161322922446
1760555093730673200,1.844673095703125,0.05588438430726528,-0.19633346835793927,0.030034077265812083
1760555093740677000,1.854677001953125,0.06677987233102321,-0.33239659240934993,0.033648568835388866
1760555093750682000,1.86468212890625,0.10312193630039691,-0.29624026027042416,0.08116806130874901
1760555093760686000,1.87468603515625,0.02980477115511894,-0.20987883156966416,-0.00841893270923756
1760555093770690000,1.88468994140625,0.0472697006970644,-0.1923696062282659,0.06660246080434881
1760555093780695000,1.894695068359375,0.05084112944304943,-0.09739991452493704,0.06707946719895116
1760555093790699000,1.904698974609375,-0.0006587561696767807,-0.09137781382435932,-0.03705521720740944
1760555093800703000,1.914702880859375,0.1074532435029745,-0.3252173484297469,0.00886951688779518
1760555093810708000,1.9247080078125,-0.00137421096265316,-0.18491560042789204,-0.021259746114490552
1760555093820712200,1.934712158203125,-0.05972469312250614,-0.06995012269786093,-0.02713994499319233
1760555093830717200,1.94471728515625,-0.053904608666896815,0.014820431498705874,0.0614342826525215
1760555093840721200,1.95472119140625,-0.059068275040388106,0.07159545591920614,0.1602672621878795
1760555093850725000,1.96472509765625,-0.04719605093896389,0.040121943267690946,0.2021685677195899
1760555093860730000,1.974730224609375,-0.04877309099733829,0.03135926602154504,0.17287397457631304
1760555093870734000,1.984734130859375,-0.025687983486056325,-0.013068994996295076,0.11644834126550703
1760555093880738000,1.994738037109375,0.10046937596499919,-0.2375995264597237,0.10237237830841914
1760555093890743000,2.004742919921875,0.04322656278610229,-0.24797804140467195,0.05970699306903406
1760555093900747000,2.0147470703125,-0.01888999390900135,-0.1291799404089339,-0.061045164603926234
1760555093910752000,2.024751953125,-0.008102057912945746,-0.08796389546133578,-0.09679094318058341
1760555093920756200,2.034756103515625,-0.015279986718297004,-0.025910437447566072,-0.04262282473929226
1760555093930760200,2.04476025390625,0.00044482115805149076,-0.0349345854913583,-0.03833818795634433
1760555093940765200,2.05476513671875,-0.016558336091041563,-0.05615942012267187,-0.029650457376241682
1760555093950769000,2.064768798828125,-0.02623275788724422,-0.07229277226729318,-0.008589877962507307
1760555093960772900,2.07477294921875,0.015988427248597146,-0.13408312008217907,0.010884217711072414
1760555093970778000,2.084778076171875,0.04852116206288337,-0.17928826206540688,0.010440035873837768
1760555093980782000,2.094781982421875,-0.022914427119493482,-0.10311099478127435,0.058376292454544454
1760555093990787000,2.104787109375,-0.04157295036017895,-0.006486535307974555,0.1353313391781412
1760555094000791000,2.114791015625,-0.03169920659959316,0.05922276691577862,0.19998342396654187
1760555094010795000,2.124794921875,-0.007584171518683433,-0.005131816780369263,0.12245585631830617
1760555094020800000,2.134800048828125,-0.03296703457832336,-0.037474296569428404,0.02059884365350008
1760555094030804200,2.14480419921875,0.017936054185032843,-0.09979007019763812,0.03167722309664823
1760555094040808000,2.154807861328125,0.03618365853726864,-0.1341558656579815,0.09748162885848433
1760555094050812200,2.164812255859375,0.045781507965922355,-0.17727684917775913,0.06462151612020098
1760555094060816400,2.17481640625,0.050742345243692394,-0.22360669347513465,0.05085201616324484
1760555094070821400,2.1848212890625,0.08561550570428371,-0.2478256638545543,0.05350142556033097
1760555094080825000,2.1948251953125,0.03807049519717693,-0.1690125681741163,0.04044434818904847
1760555094090829000,2.2048291015625,-0.023817513439059256,-0.0591871658794349,-0.005371856630919501
1760555094100834000,2.214833984375,-0.023014964884519575,-0.0448586392336525,-0.012827524665417148
1760555094110838300,2.22483837890625,-0.0021568857729434964,-0.09838678840412758,0.025312656500795856
1760555094120842200,2.23484228515625,-0.018387305083870886,-0.04539318906834815,0.008134398413123562
1760555094130847200,2.24484716796875,-0.015492168164253233,-0.03684360201703384,0.088719846661482
1760555094140851200,2.254851318359375,0.021018238109350204,-0.018784166905860183,0.20431615594122557
1760555094150856200,2.264856201171875,-0.023432898035645484,-0.03723982109327335,0.23251389375850556
1760555094160860400,2.2748603515625,-0.03372223685979843,-0.04768364722623955,0.08569014184307307
1760555094170864000,2.284864013671875,-0.009575637596845626,-0.09311915019950828,0.0027058157594408837
1760555094180869000,2.294869140625,-0.015673369950056075,-0.07939646679265425,-0.034531817943323405
1760555094190873000,2.304873046875,0.005461188015341759,-0.12619710693955422,0.013977324888203291
1760555094200877300,2.314877197265625,0.0671247402459383,-0.1585520375015214,0.09822322273971512
1760555094210882300,2.32488232421875,0.10347206491231918,-0.28475785747049376,0.16009194215359165
1760555094220886300,2.33488623046875,0.11738660849630832,-0.3643048751823604,0.15104788154964335
1760555094230891300,2.344891357421875,0.09690613052546977,-0.32985874449480324,0.09427238448839634
1760555094240895200,2.354895263671875,0.016244447836279867,-0.14409134041001087,0.10813386444458738
1760555094250899200,2.364899169921875,0.003968319109082222,-0.09830736649236642,0.11870033970968798
1760555094260904200,2.374904296875,-0.031634909191727636,-0.047408195852302014,0.05427068376662209
1760555094270908200,2.384908203125,-0.03181377288997173,0.011911819751228904,0.10502740459553897
1760555094280912100,2.394912109375,0.025445406901836394,-0.02128188031448517,0.15721030403636396
1760555094290917000,2.404917236328125,-0.0007581248909235,-0.11793172082421369,0.051272652728110546
1760555094300921000,2.414921142578125,0.004479775762557983,-0.1557977338247001,-0.04758063894291408
1760555094310926000,2.424926025390625,0.01778232492804527,-0.12909636291186324,-0.014988639088906347
1760555094320930300,2.434930419921875,0.010295768564939498,-0.1010465913310647,0.058791403460921716
1760555094330934300,2.444934326171875,-0.01273614745438099,-0.06927521454440429,0.06023669776525348
1760555094340939300,2.454939208984375,-0.027564298751950263,-0.039333025946281845,0.08938517870241776
1760555094350943000,2.46494287109375,0.02074526638686657,-0.10959371699723415,0.0907829532037489
1760555094360947200,2.474947265625,0.03674479955136776,-0.1377785496671684,0.04161208592732437
1760555094370952200,2.4849521484375,0.05108487507104873,-0.22444871552353723,0.021652353028114885
1760555094380956200,2.4949560546875,0.08441080608963966,-0.27635772992642593,0.09042547240243293
1760555094390961200,2.504961181640625,0.0240858089864254,-0.1490331076611299,0.08700854009841569
1760555094400965000,2.514965087890625,-0.023952537995576857,-0.08237895320216193,0.07607644639131612
1760555094410969300,2.52496923828125,-0.010513795229792594,-0.06124823116166517,0.09312371677677146
1760555094420974300,2.534974365234375,0.002031213566660881,-0.10688428450860082,0.09634002107530831
1760555094430978300,2.544978271484375,-0.014245967495441436,-0.019013816651492377,-0.014412419236684217
1760555094440982000,2.55498193359375,-0.03202069363892078,-0.05591629554918036,-0.02552112075285986
1760555094450987000,2.564987060546875,0.011356675794720649,-0.06550074664014391,0.056551616044342515
1760555094460991200,2.5749912109375,0.06059504621624946,-0.11937305133948102,0.05767564250505529
1760555094470996200,2.584996337890625,-0.025857494834065436,-0.06237093331497162,0.0076323032430373125
1760555094481000200,2.595000244140625,-0.034379823985695834,-0.036269046682224144,0.06014828882943839
1760555094491004200,2.605004150390625,0.015731237617135047,-0.039668532377807424,0.10878694892530329
1760555094501009200,2.615009033203125,0.010354805275797843,-0.09523360333652235,0.0949419817124959
1760555094511013400,2.625013427734375,-0.009070610684156417,-0.11502119453921913,0.045498316243523726
1760555094521017000,2.63501708984375,0.026229250755906104,-0.12899482963299377,0.06021416627303697
1760555094531022000,2.64502197265625,0.04775193125605583,-0.19670575400274246,0.09880380823980085
1760555094541026000,2.655026123046875,0.051966334080696105,-0.2257472674340941,0.03833792309486307
1760555094551031000,2.665031005859375,0.025508535265922543,-0.16233016780074686,0.002533582731382921
1760555094561035300,2.67503515625,0.011283026036620139,-0.09370902411774731,0.07417650365466251
1760555094571039200,2.685039306640625,-0.0030757541835308073,-0.06118573298524133,0.0738289231928531
1760555094581044200,2.695044189453125,-0.0049742812812328336,-0.06842392691073473,0.03844015962663106
1760555094591048200,2.705048095703125,-0.04477145414054393,0.02469633525033714,0.04885011088945903
1760555094601052200,2.71505224609375,0.0003916296660900116,-0.032250652770162556,0.16207900605127215
1760555094611057400,2.725057373046875,0.013706453791260719,-0.04922029590872116,0.14492605593479238
1760555094621061000,2.73506103515625,0.008607084825634955,-0.08268507827557622,0.07227148288409226
1760555094631066000,2.745066162109375,0.030572832918167113,-0.161718520442117,0.06610792788621038
1760555094641070000,2.755070068359375,0.013662030127644538,-0.10822383514982648,0.05061927598644979
1760555094651074000,2.765073974609375,-0.0334708924472332,-0.022259481758542823,0.04455579296271316
1760555094661079300,2.775079345703125,-0.026742460975050925,-0.03390718323895708,0.05097251900406554
1760555094671083300,2.785083251953125,0.02699497443139553,-0.10342744945245794,0.038944802946830163
1760555094681088300,2.795088134765625,0.0440583374351263,-0.15162026547696442,0.019671874134847892
1760555094691092200,2.80509228515625,0.06365092665553093,-0.2335979078692384,0.08789561599809675
1760555094701096200,2.81509619140625,0.04168459404110908,-0.21916049118861555,0.05163380505754612
1760555094711101200,2.82510107421875,-0.020098785176873205,-0.0799163442146033,0.04718580353958532
1760555094721105200,2.835105224609375,0.008318915534019469,-0.042748565444233826,0.11137810706282034
1760555094731109000,2.845109130859375,-0.012024199792742728,-0.03806510435271775,0.09501373177445493
1760555094741114000,2.855114013671875,-0.03805354406237602,-0.026598166266689077,0.028388282820163292
1760555094751118000,2.8651181640625,-0.025360066705942153,0.0033646678272401913,0.07073935967967845
1760555094761123000,2.875123046875,0.031491116806864734,-0.10730059195822104,0.07463229373130016
1760555094771127300,2.885127197265625,0.004397358176112175,-0.130347230622638,0.011370877850009127
1760555094781131300,2.89513134765625,0.02068681419789791,-0.08531020261477679,0.05519850266864523
1760555094791136300,2.90513623046875,0.05839432130157947,-0.13646536644306034,0.03545236685434356
1760555094801140000,2.915139892578125,0.06586392652988433,-0.23165886609805747,0.04646840338469483
1760555094811144200,2.925144287109375,0.08396540040969848,-0.23139226931743323,0.10172411613329313
1760555094821149200,2.935149169921875,0.019925766697525975,-0.15043456282373516,0.044272235914133484
1760555094831153200,2.945153076171875,0.008252280038595199,-0.09360520755024626,0.02880361302224919
1760555094841158100,2.955158203125,-0.01911737292408943,-0.04353095256015658,-0.0011402286768425255
1760555094851162000,2.965162109375,-0.004455225843191146,-0.08374484386104158,0.03673121855058707
1760555094861166300,2.975166259765625,0.06287701967358589,-0.1354029705090914,0.09438425649818964
1760555094871171300,2.98517138671875,-0.01584697295129299,-0.0790325836500153,0.10342773258024826
1760555094881175300,2.99517529296875,0.0011813187390565872,-0.018787022158293983,0.1234455706085544
1760555094891179000,3.005178955078125,-0.001993219643831253,-0.05804270855204668,0.10906692577730864
1760555094901184000,3.01518408203125,0.03806055832505226,-0.13254740754803643,0.17427233359953387
1760555094911188200,3.025188232421875,0.06109422791004181,-0.14924025673894212,0.0628465606032405
1760555094921193200,3.035193115234375,0.04538929377794265,-0.26010391147360207,-0.07098360763117671
1760555094931197200,3.045197265625,0.1226332769781351,-0.324176972531341,-0.039634346980415285
1760555094941201200,3.055201171875,0.05758943465948105,-0.2465110558583401,-0.038979180140467355
1760555094951206100,3.0652060546875,0.03459317447543144,-0.19604093341846018,-0.009635898150410502
1760555094961210400,3.07521044921875,0.01040332059264183,-0.12439854221814312,0.05211388932522386
1760555094971214300,3.08521435546875,-0.0181470665872097,-0.05002469392705243,0.08950806529656984
1760555094981219300,3.09521923828125,0.03964285908043384,-0.09130537877581081,0.13330366927543655
1760555094991223000,3.10522314453125,0.021103578305244446,-0.1104931591881439,0.1032697472732514
1760555095001228000,3.11522802734375,0.010483400091528892,-0.05010578720609191,0.1082063451589085
1760555095011232300,3.125232177734375,-0.004460486540198326,-0.09900326720150188,0.06271951842377893
1760555095021236200,3.135236328125,-0.0029518355429172514,-0.0913526428504847,0.009264069163333624
1760555095031241200,3.1452412109375,0.011573533415794372,-0.1070760716204997,0.08010739154098555
1760555095041245200,3.1552451171875,-0.0033738603472709652,-0.08835110468063503,0.06633259435440413
1760555095051249400,3.16524951171875,-0.018326514807343482,-0.08874642414115369,0.05441688730427995
1760555095061253600,3.175253662109375,0.02493278120458126,-0.09351815032130106,0.03084392321081832
1760555095071257600,3.185257568359375,0.02361176173388958,-0.13933268377399072,0.026098043857980518
1760555095081262600,3.1952626953125,0.0269482126802206,-0.1473755223129876,-0.0626634317218326
1760555095091266300,3.205266357421875,0.01935001263618469,-0.15591697629019616,-0.0008861534510739147
1760555095101270500,3.2152705078125,0.03270341520607471,-0.11464431491768919,0.10731512280707246
1760555095111275500,3.225275634765625,-0.01739595595896244,-0.0759795207889052,0.09924933265075087
1760555095121279500,3.235279541015625,0.022858897539973257,-0.08715475276922807,0.16045622715502977
1760555095131284500,3.245284423828125,0.012085574591159819,-0.07662285562716424,0.2081326089568436
1760555095141288400,3.255288330078125,-0.027427520629763603,0.0013749690144788473,0.12021405960773117
1760555095151292700,3.265292724609375,0.027924364235997198,-0.10903304177401586,0.11168537378055043
1760555095161297700,3.275297607421875,0.0395879140228033,-0.17859978661090134,0.07479379530278965
1760555095171301400,3.28530126953125,0.042570729225873946,-0.17256098137069492,0.060132917730370536
1760555095181305300,3.295305419921875,0.03299976780414581,-0.1173658762355335,0.002866751075349748
1760555095191310300,3.305310302734375,-0.004104512709379196,-0.14341873837807215,0.007437145997118204
1760555095201314600,3.315314453125,0.02956336361467838,-0.1481521875075996,0.05798142051859759
1760555095211319600,3.325319580078125,-0.004849778118729591,-0.06963430278091691,0.10716245299600996
1760555095221323500,3.335323486328125,-0.04363397454321384,0.0031389670292963274,0.16805504825357348
1760555095231327500,3.345327392578125,0.0027227029621601103,0.028365682829287833,0.19170087665384633
1760555095241332500,3.35533251953125,-0.046533787637948985,-0.013086367397848516,0.07544813102567569
1760555095251336400,3.36533642578125,-0.0018336451679468154,-0.02525803338686237,0.04624554528109729
1760555095261340400,3.37534033203125,0.018203180688619612,-0.06529774401448667,-0.008327144506247714
1760555095271345400,3.385345458984375,0.038249358895421026,-0.1837049094638787,-0.07029327814630232
1760555095281349400,3.395349365234375,0.09092354898452758,-0.23199253676552326,-0.02689714008010924
1760555095291354400,3.405354248046875,0.017772972577810287,-0.17807976305847986,-0.03166018976345658
1760555095301358300,3.4153583984375,0.012103694769740103,-0.11641176298162899,0.021155938680144027
1760555095311362600,3.425362548828125,0.031281273448467255,-0.12739527634871192,0.048659511087648565
1760555095321367600,3.435367431640625,0.006311667364835739,-0.13578197815562598,0.04523998496774584
1760555095331371500,3.44537158203125,0.0006377133816480637,-0.09044682571771553,0.0821933857684955
1760555095341376500,3.45537646484375,0.025642390778660772,-0.08561878450675867,0.08180163737139665
1760555095351380500,3.46538037109375,0.00933539910018444,-0.09489607847784645,0.08866034415974282
1760555095361384400,3.475384521484375,0.028802316114306448,-0.08632664964832365,0.08064151668399572
1760555095371389400,3.485389404296875,0.038840310525894164,-0.171466537197493,0.03813051828872412
1760555095381393400,3.495393310546875,0.0569552284091711,-0.1564393379301764,0.08358109553353861
1760555095391397400,3.5053974609375,-0.006623217532038688,-0.07873435875526628,0.06642419989430345
1760555095401402400,3.51540234375,-0.01664426080882549,-0.06718732062075286,0.06649426032267511
1760555095411406600,3.525406494140625,0.031099487140774724,-0.11453858038773759,0.0836496489914134
1760555095421411600,3.53541162109375,0.012108370944857597,-0.09950617522234097,0.03916560609065927
1760555095431415600,3.54541552734375,0.011221651238203048,-0.1201373411097098,0.04388031398709863
1760555095441419300,3.555419189453125,0.014677929171919821,-0.14386087438869288,0.04817928068949841
1760555095451424300,3.56542431640625,0.014839257213473319,-0.12363234361861832,0.057008100240724155
1760555095461428500,3.575428466796875,0.032361469900608064,-0.11981347945020533,0.07793071422218345
1760555095471432400,3.585432373046875,0.010379939717054367,-0.12131160905347205,0.04581758392630145
1760555095481437400,3.5954375,0.006649521017074584,-0.10815236821565777,0.07641677512843162
1760555095491441400,3.60544140625,-0.008461538875102996,-0.04224707306234631,0.11860963835208677
1760555095501446400,3.6154462890625,0.00739303286075592,-0.06811242240930442,0.1660334062328562
1760555095511450600,3.62545068359375,0.013371522748470305,-0.1086624640291091,0.10804773879740387
1760555095521454600,3.63545458984375,0.0037841947138309477,-0.0749654986078851,0.07144095034408382
1760555095531459600,3.64545947265625,0.016350830820202826,-0.10612977634686976,0.03890609663794748
1760555095541463300,3.65546337890625,-0.02255026998221874,-0.09513533972697331,-0.016449706351105122
1760555095551468300,3.66546826171875,-0.023604162949323652,-0.01125404425401939,0.002656250129826367
1760555095561472500,3.675472412109375,0.026077275064587593,-0.08784889991269447,0.07944672654201276
1760555095571476500,3.6854765625,-0.003103226712346077,-0.13596978321215136,0.08033518154802732
1760555095581481500,3.6954814453125,0.04866144731640815,-0.10932593290652148,0.12102999736680649
1760555095591485400,3.7054853515625,0.009297989699244499,-0.10088581127878278,0.1203478146557696
1760555095601489700,3.71548974609375,0.011077274331450462,-0.08701138050947338,0.11355045526637696
1760555095611494700,3.72549462890625,0.02812953141927719,-0.10128682069457136,0.06389301004940644
1760555095621498600,3.73549853515625,0.010462357303500175,-0.12366725966837257,0.03088561606123112
1760555095631503600,3.745503662109375,0.046669396716356275,-0.13646933023212476,0.04717210380779579
1760555095641507300,3.75550732421875,0.02377542786300182,-0.13800212928997352,0.02310226870863698
1760555095651511600,3.765511474609375,0.02527180390059948,-0.14022761418656446,0.009380087625281884
1760555095661516500,3.7755166015625,0.005674538505077362,-0.10036335830725729,0.04478920899294316
1760555095671520500,3.7855205078125,-0.005693827727437019,-0.06742550872422289,0.04433312665536068
1760555095681525500,3.795525390625,0.04519406346678734,-0.10675777205210178,0.02203668530373834
1760555095691529500,3.805529541015625,0.027246903365850447,-0.15051727267112583,0.039837185209291054
1760555095701533400,3.815533447265625,0.018571429479122162,-0.12013449156549759,0.10507145379981957
1760555095711538400,3.825538330078125,0.0033119010269641873,-0.10408594076065346,0.10408889990272
1760555095721542700,3.835542724609375,0.0022527473628520963,-0.08218269997769967,0.12438036724063567
1760555095731546400,3.84554638671875,-0.02663841607868671,-0.031519968442013484,0.13333334289449267
1760555095741551400,3.85555126953125,-0.026352584874629974,-0.035490516040800134,0.06894173567318357
1760555095751555300,3.865555419921875,0.03318973741829395,-0.1297915329686366,0.05742650831588544
1760555095761560300,3.875560302734375,0.04231763124763965,-0.13873177700508385,0.02190989885260351
1760555095771564500,3.885564453125,0.008350479716062545,-0.13966726775690913,0.007977162024797872
1760555095781568500,3.895568603515625,0.039030280140042305,-0.1602944241894409,0.04492001403206959
1760555095791573500,3.905573486328125,0.0038677813440561293,-0.10468872895939275,0.06712729752920568
1760555095801577500,3.915577392578125,-0.026961656683683395,-0.03384494992401451,0.06718576798448339
1760555095811581400,3.92558154296875,0.012687632137537002,-0.056240052177407775,0.08544432298899628
1760555095821586400,3.93558642578125,0.015817162334918974,-0.08070069952532649,0.08745657612686045
1760555095831590400,3.94559033203125,0.00982289035618305,-0.08527418145332485,0.09073375290031545
1760555095841595400,3.955595458984375,-0.00305471139550209,-0.10057357612499035,0.039084768539946524
1760555095851599400,3.965599365234375,0.041975685942173005,-0.14704776079650037,0.05643789000418037
1760555095861603600,3.975603515625,0.034337738409638406,-0.15586685353815555,0.0800351848213002
1760555095871608600,3.985608642578125,0.028344635474681853,-0.15639887805562466,0.08603680898942984
1760555095881612500,3.995612548828125,0.03116904524564743,-0.09180219498258084,0.12111944748223759
1760555095891616500,4.005616455078125,0.016039865174889565,-0.07668799328524618,0.09228305556839332
1760555095901620500,4.015620361328125,-0.027070962277054786,-0.03691690471526235,0.042066305101383476
1760555095911625500,4.02562548828125,0.013020225092768668,-0.10781528174839913,0.003632401685602963
1760555095921629400,4.03562939453125,0.01197276186645031,-0.11275756958932615,-0.009035676368093118
1760555095931634400,4.045634521484375,0.03321662542521953,-0.150261909670569,0.03892678323294967
1760555095941638400,4.055638427734375,0.06239537363648414,-0.1842888102990575,0.08450832991367206
1760555095951642600,4.065642578125,0.020199322941899297,-0.13168524689390324,0.06825401827050373
1760555095961647600,4.075647705078125,0.033059973558783526,-0.13309218194922431,0.11651591747584752
1760555095971651600,4.085651611328125,0.04293547088503837,-0.11408709202688187,0.10277241047667339
1760555095981655600,4.095655517578125,-0.01407937875688076,-0.06955505439909175,0.049962830504868175
1760555095991660500,4.10566064453125,-0.0016664719074964522,-0.1074208025380969,0.055989214654918754
1760555096001664500,4.11566455078125,0.02914776855111122,-0.146632786787441,0.09700049427803606
1760555096011669500,4.12566943359375,0.026447861942648886,-0.13048722361521795,0.05584102008957415
1760555096021673500,4.135673583984375,0.0025058453410863875,-0.10145250525083392,0.033041688983421774
1760555096031677400,4.145677490234375,-0.02158697790801525,-0.038943907897686585,-0.029858510636352
1760555096041682400,4.155682373046875,0.00864741683602333,-0.0865186285564676,-0.02004883595476858
1760555096051686700,4.165686767578125,0.001782207241654396,-0.0564350221936591,-0.021760151650989427
1760555096061691600,4.175691650390625,-0.0042097266495227815,-0.09310104828723706,0.06995297680865041
1760555096071696000,4.18569580078125,0.04589958138763904,-0.11983094204165973,0.15642892613401635
1760555096081699800,4.195699951171875,0.009683189624547959,-0.1187617601738777,0.1088343956630677
1760555096091704800,4.205704833984375,0.031816695499420164,-0.13808986237235366,0.060229500839486715
1760555096101708500,4.21570849609375,0.017286650365591048,-0.10324400091064162,0.07602080721394158
1760555096111712800,4.225712646484375,0.009804770177602767,-0.11903380031459965,0.08450057586547918
1760555096121717800,4.2357177734375,0.012954174119234085,-0.13033453553784638,0.018342433895682915
1760555096131721700,4.2457216796875,0.012969371688365936,-0.13107511563892477,0.0066127509369514875
1760555096141726700,4.255726806640625,0.0013134206861257552,-0.10261727471388876,0.009600662440247832
1760555096151730700,4.265730712890625,0.027218261793255805,-0.12952084453478455,0.0227515099090524
1760555096161735000,4.27573486328125,0.01602174499630928,-0.0949270398716908,0.04137561029032804
1760555096171740000,4.285739990234375,-0.021064415338635442,-0.04302419948126189,0.030312437549466265
1760555096181743600,4.29574365234375,0.0009516016364097595,-0.06055934471520595,0.055866081465594464
1760555096191748600,4.30574853515625,-0.036437341037392615,-0.0054709148249123245,0.047444774136180055
1760555096201752600,4.315752685546875,-0.02145312239527702,-0.03560303422127617,0.021606897318037225
1760555096211756800,4.3257568359375,0.006390577819943428,-0.06936581543730572,0.07110821125837974
1760555096221761800,4.33576171875,0.037379590323567385,-0.10491190672339872,0.06843029728601686
1760555096231765800,4.345765869140625,0.03021510552167892,-0.12409659099634736,0.060818945499463005
1760555096241770800,4.355770751953125,-0.008687164324522018,-0.07854040708574465,0.1070296295297332
1760555096251774700,4.365774658203125,0.014360533785820006,-0.06363522676290012,0.13935817440827375
1760555096261779700,4.37577978515625,0.01615852311849594,-0.09606101233768276,0.10695024415059015
1760555096271784000,4.385783935546875,0.04294131610393524,-0.129411831202358,0.0821511449288111
1760555096281789000,4.395788818359375,0.036812019568681714,-0.0931376265711151,0.051435332476533945
1760555096291792600,4.405792724609375,0.047745501515269274,-0.13272632604520768,0.019597119265049694
1760555096301796600,4.415796630859375,0.03907411928176879,-0.14527657727235926,0.024132196278264746
1760555096311801600,4.425801513671875,0.017239304092526435,-0.1395188631290104,0.048617553375754505
1760555096321805800,4.435805908203125,0.0115635965436697,-0.10539872212596237,0.048592208871943876
1760555096331809800,4.445809814453125,0.006477671581506729,-0.08413315819203854,0.09208186130733229
1760555096341814800,4.455814697265625,0.03117372142076492,-0.08917201087577269,0.06276683729737997
1760555096351818800,4.46581884765625,0.022349778974056243,-0.13087085263794287,0.06248780116029083
1760555096361823700,4.47582373046875,0.03820844236314296,-0.13670072783520446,0.08479260848145931
1760555096371828000,4.485827880859375,0.026092472633719443,-0.10296690100231207,0.058082570204976945
1760555096381831700,4.495831787109375,-0.005622516056895256,-0.09069989629648625,0.04912570382729172
1760555096391836700,4.505836669921875,0.027740239840745924,-0.12634378540124744,0.09824075839640573
1760555096401840600,4.515840576171875,0.012028291445970535,-0.07306808575503528,0.0959170920886565
1760555096411845600,4.525845703125,-0.011907295414805412,-0.04294207415576093,0.06961017298665828
1760555096421849600,4.535849609375,0.016515081471204757,-0.04378754853657447,0.08128105669654906
1760555096431853800,4.545853759765625,0.0020008184283971785,-0.054598020591423845,0.05962118708225898
1760555096441858800,4.55585888671875,-0.019096330136060713,-0.05748354486590251,0.028787730466527862
1760555096451862800,4.56586279296875,0.003493687334656715,-0.05011744111126754,0.05977905365824699
1760555096461867800,4.57586767578125,-0.010870353582501411,-0.05019541085145902,0.029673536857729776
1760555096471871500,4.58587158203125,0.005587444743514061,-0.06496716948640532,0.02882777934912592
1760555096481875700,4.595875732421875,0.03640577685534954,-0.11736530997995287,0.07886759321349672
1760555096491880700,4.605880615234375,0.029523616126179694,-0.12979611781220882,0.08731872029243969
1760555096501884700,4.615884765625,0.028776597151160238,-0.13129242078457026,0.05783687921506352
1760555096511889700,4.6258896484375,0.016214052698016165,-0.12411415405250154,0.050105928769987075
1760555096521893600,4.6358935546875,0.025648820519447325,-0.1276190569009166,0.03314834596198052
1760555096531897900,4.64589794921875,0.020713117682933806,-0.10900060080913826,0.0577690472763963
1760555096541902800,4.65590283203125,0.029395021310448646,-0.09540522444322705,0.05487703389562666
1760555096551906800,4.66590673828125,0.03957797715067863,-0.11455590598187408,0.026745401850808412
1760555096561910500,4.67591064453125,0.039130817905068394,-0.12155879788072779,0.048367725066840644
1760555096571915500,4.68591552734375,0.0005278232663869858,-0.07524764001751318,0.07734556214483454
1760555096581919700,4.695919677734375,-0.00769932233095169,-0.06952846321968827,0.07167286853697151
1760555096591924700,4.7059248046875,0.018328268373012543,-0.10097854932984336,0.08667499729511327
1760555096601928700,4.7159287109375,0.009341828840970992,-0.07899575877096504,0.10109654968632384
1760555096611932700,4.7259326171875,0.009634089785814285,-0.09629245560653507,0.07431586645958013
1760555096621937700,4.735937744140625,0.025929391026496884,-0.09396370213171466,0.07626633380707352
1760555096631942000,4.74594189453125,0.005564648389816284,-0.1031254708311986,0.08395441322480328
1760555096641947000,4.75594677734375,0.01558686071038246,-0.13305163987628182,0.06799080075705423
1760555096651950800,4.765950927734375,0.046406946387887,-0.14036856616036966,0.03504628853779286
1760555096661954600,4.77595458984375,0.018269231662154196,-0.09840113658988847,0.04194501680927351
1760555096671959600,4.78595947265625,-0.004025017732381821,-0.06132054747920483,0.055594178322190414
1760555096681963800,4.7959638671875,0.02724105814695358,-0.08586231093904935,0.06793410213375464
1760555096691967700,4.8059677734375,0.0409954427331686,-0.0943822380710393,0.10276095750089734
1760555096701972700,4.81597265625,-0.0202080907702446,-0.03571039216944482,0.04342165609993972
1760555096711976700,4.825976806640625,0.004477437674999237,-0.06633169473868329,0.02511979167666286
1760555096721981700,4.835981689453125,0.02526829676926136,-0.1173033232601825,0.06639144840217195
1760555096731986000,4.84598583984375,0.016584639576077462,-0.09422274579354561,0.06702833979991264
1760555096741989600,4.85598974609375,0.0013140052080154417,-0.07320749422572553,0.05579980216319672
1760555096751995000,4.865994873046875,0.00743570295870304,-0.06589901610957458,0.0991219799440354
1760555096761998600,4.87599853515625,0.007871171766519545,-0.07407686093878,0.09894437662111595
1760555096772003600,4.886003662109375,-0.0015682722300291061,-0.06916201366062741,0.054582069537043566
1760555096782007800,4.8960078125,0.006797989577054977,-0.08070570449400692,0.029611011281842365
1760555096792011800,4.90601171875,0.013514730611443518,-0.10974872489585541,0.05480361246638931
1760555096802016800,4.916016845703125,0.024124387431144714,-0.11170733901718631,0.04805489625800401
1760555096812020700,4.926020751953125,-0.004765606966614723,-0.09666660441486165,0.049608107916219155
1760555096822025700,4.936025634765625,0.021699206110835072,-0.08022835103953256,0.08570301959095522
1760555096832029700,4.94602978515625,0.058632806232571597,-0.12595190000683068,0.11107225598404183
1760555096842033700,4.95603369140625,0.03197100927829742,-0.15902864203732459,0.09237197596086189
1760555096852038700,4.96603857421875,0.023114333605766296,-0.13763359737168065,0.06856127585507929
1760555096862042600,4.976042724609375,0.003328267639875412,-0.07033458283764775,0.06781241198284552
1760555096872046600,4.986046630859375,-0.0011906710892915725,-0.06968962229788303,0.04560887307906523
1760555096882051600,4.996051513671875,0.017945991057157516,-0.09565830415515228,-0.017269151241518555
1760555096892055800,5.006055908203125,0.0201817872852087,-0.11118604595628566,-0.018604601096361875
1760555096902060800,5.016060791015625,0.002511106038093567,-0.033557661981810816,0.027798956891195846
1760555096912064800,5.026064697265625,-0.0012298340559005736,-0.07869145119530148,0.021032111371075732
1760555096922068700,5.03606884765625,0.01059504377245903,-0.07815073191472328,0.0191843554793857
1760555096932073700,5.04607373046875,0.023306056785583496,-0.06530097258461173,0.057561313676694405
1760555096942077700,5.05607763671875,0.0041501054167747495,-0.07902174259559251,0.07198645539763383
1760555096952082700,5.066082763671875,0.0074491469621658325,-0.07765433583306149,0.07922181347864679
1760555096962086700,5.076086669921875,0.017025369080901145,-0.0706588326562196,0.04403588814130053
1760555096972090600,5.086090576171875,-0.022936054429411885,-0.04957643413632176,0.04773628616235219
1760555096982095600,5.096095703125,-0.0040928222715854645,-0.05551458288049325,0.09545007736510597
1760555096992099800,5.106099853515625,0.003817512461543083,-0.04923888187818229,0.08550432781423442
1760555097002104800,5.116104736328125,-0.0015974983245134354,-0.05381442789910361,0.10016974456445313
1760555097012108800,5.12610888671875,0.023510639446973798,-0.10991359660136513,0.08426680364222265
1760555097022112800,5.13611279296875,0.051019408619403836,-0.1500517831843812,0.051049584561958905
1760555097032117800,5.14611767578125,0.025431378376483914,-0.09776294828420504,-0.022475378115102647
1760555097042121700,5.156121826171875,-0.011064414849877358,-0.08101692586764693,-0.019117710850806907
1760555097052130600,5.166130615234375,0.0006108253747224808,-0.03458847090085037,0.02212575182667933
1760555097062134300,5.17613427734375,0.005533668729662895,-0.01620892899832688,0.07982957011344842
1760555097072138200,5.18613818359375,0.007308861708641052,-0.0478187402814161,0.12202718257745727
1760555097082143200,5.196143310546875,0.022411153772473335,-0.0895771941431798,0.0724884866356384
1760555097092147500,5.2061474609375,0.020748188996315,-0.10552225717408582,0.03265500035393051
1760555097102151400,5.2161513671875,0.03030512189269066,-0.12869770984994247,0.04683304457915947
1760555097112156400,5.226156494140625,0.07908113549947739,-0.18694869542438536,0.020703473071753978
1760555097122160400,5.236160400390625,0.030295185020565985,-0.13770492730853148,0.031733720790548245
1760555097132165400,5.246165283203125,0.004670914420485496,-0.09088181960149667,0.09630389944915659
1760555097142169300,5.25616943359375,0.05099661226570606,-0.1276417619230691,0.11815693528167903
1760555097152173300,5.26617333984375,0.044403205350041386,-0.16885681135682387,0.005815490478882566
1760555097162178300,5.27617822265625,0.017962942191958427,-0.1316346766172908,-0.09442144670342095
1760555097172182300,5.286182373046875,-0.0046259062349796294,-0.038918928720057006,-0.0017087401466444135
1760555097182187300,5.296187255859375,0.009262918385863303,-0.02363712222072063,0.09848322538277134
1760555097192191500,5.30619140625,-0.006740121909976005,-0.05012597604417242,0.06826614709971472
1760555097202195500,5.316195556640625,0.010625438910722733,-0.04335030789677985,0.06656724336049519
1760555097212200400,5.326200439453125,-0.012179098093509673,-0.011262474155647214,0.15105049363183787
1760555097222204400,5.336204345703125,-0.0013245266020298003,-0.029603713891375807,0.1651126015935093
1760555097232209400,5.34620947265625,0.035921792730689045,-0.0999788433685433,0.057446729120006784
1760555097242213400,5.35621337890625,0.010313304221630095,-0.10425046540629118,0.03973455595187843
1760555097252217300,5.36621728515625,-0.008456278178095817,-0.05928525139247067,0.0870932135740295
1760555097262222300,5.376222412109375,0.03296645005643368,-0.12206606241627596,0.05065631092805415
1760555097272226300,5.386226318359375,0.005000000244379043,-0.1395176118868403,-0.013400273918919264
1760555097282230300,5.396230224609375,-0.017312953850626943,-0.10083469301289878,-0.007282339027896523
1760555097292235300,5.4062353515625,0.027267946153879164,-0.1283074501570314,0.010922997085191309
1760555097302239500,5.416239501953125,0.00035889644026756285,-0.09687940691532566,-0.011950641366187483
1760555097312244500,5.426244384765625,0.015610826107859611,-0.06795753780826926,0.0451101115103811
1760555097322248400,5.43624853515625,0.027709844702482223,-0.08667590147741139,0.08237179280901327
1760555097332252200,5.446252197265625,-0.02854045030772686,-0.016756199033989106,0.04806543591832742
1760555097342257200,5.456257080078125,-0.021226327902078627,-0.03275143276599701,0.061824204418715084
1760555097352261400,5.466261474609375,-0.001807341682910919,-0.034166720091132446,0.0821724891109392
1760555097362266400,5.476266357421875,-0.011971008300781249,-0.061733347797486925,0.050498654414620245
1760555097372270300,5.486270263671875,0.007197802549600601,-0.09134371062535793,0.02310059734135866
1760555097382274300,5.4962744140625,0.03739595693647861,-0.09461262189396656,0.06075281232753768
1760555097392279300,5.506279296875,0.012535071924328803,-0.10947053814213722,0.08092100947881117
1760555097402283500,5.516283447265625,0.00881517461836338,-0.09695345853222534,0.024935539417248218
1760555097412288500,5.52628857421875,0.02932546320557594,-0.10128718602075241,0.0022756533144041896
1760555097422292500,5.53629248046875,0.04009527902305126,-0.12125749511290342,0.01927270961627364
1760555097432296200,5.546296142578125,0.0119949736982584,-0.08973473192560485,0.004682513526733965
1760555097442301200,5.55630126953125,0.024320202264189718,-0.1063735676406417,-0.013937997524812817
1760555097452305400,5.566305419921875,0.02315408109426498,-0.08804287898167967,0.0002853014810942113
1760555097462309400,5.576309326171875,0.0011626140385866165,-0.0499989521310199,0.08359386368356644
1760555097472314400,5.586314453125,0.004029109385609626,-0.07545143722761422,0.10498531901948153
1760555097482318300,5.596318359375,-0.004757423660159111,-0.07339448643149808,0.03954021155671216
1760555097492323300,5.6063232421875,-0.0006979191362857818,-0.07091862523672171,0.043044228489138185
1760555097502327600,5.61632763671875,0.037004911792278286,-0.07904577192515135,0.1016761396725662
1760555097512331300,5.626331298828125,0.046291211053729055,-0.12079230702025816,0.08647313631377182
1760555097522336300,5.636336181640625,0.018325930285453797,-0.116425800640136,0.054811722707608715
1760555097532340200,5.64634033203125,0.031494623938202855,-0.09985582891022786,0.059986047472432254
1760555097542345200,5.65634521484375,0.02953822917342186,-0.11768361868150531,0.0640264271707274
1760555097552349400,5.666349365234375,0.024300328519940375,-0.10421081838249228,0.052505756453331554
1760555097562353400,5.676353515625,0.005626023188233375,-0.06950630618680734,-0.011777138829650357
1760555097572358400,5.6863583984375,0.010734159982204436,-0.08942341008726507,0.03589101399993524
1760555097582362400,5.6963623046875,0.013722235882282257,-0.012117243804479948,0.03742913768687285
1760555097592367400,5.706367431640625,0.028125439766049382,-0.05035825499666389,-0.012699934496683999
1760555097602371300,5.716371337890625,-0.0023410101681947708,-0.09394660486644134,-0.06704870673450641
1760555097612375300,5.726375244140625,-0.0036538463324308395,-0.11572408211156725,-0.022197191361384466
1760555097622380300,5.73638037109375,0.03153904760181904,-0.1274014412280172,0.0867435233535245
1760555097632384300,5.74638427734375,-0.009124386698007582,-0.062455588524276386,0.1060326087158639
1760555097642388200,5.75638818359375,-0.015094693279266356,-0.038772862179717045,0.14713154835612513
1760555097652393200,5.766393310546875,0.019459318229556082,-0.028057358948921318,0.14925438572899438
1760555097662397400,5.7763974609375,0.005554126995801926,-0.07157211614281404,0.060733797099813816
1760555097672402400,5.78640234375,-0.006974515187740326,-0.08009434026316739,-0.019099663737462833
1760555097682406400,5.796406494140625,-0.0030687399208545684,-0.06875863419123925,0.015622954937070607
1760555097692410400,5.806410400390625,0.033441081830859185,-0.09330831609605811,0.0894322601140011
1760555097702415400,5.816415283203125,0.017314122894406318,-0.11043962976946495,0.03939225445338525
1760555097712419300,5.82641943359375,0.001785129851102829,-0.07727135526430792,0.02886232093954459
1760555097722424300,5.83642431640625,0.020328502279520034,-0.06365771258934401,0.09625033349785954
1760555097732428300,5.84642822265625,0.00791150377690792,-0.060766046268446366,0.07317618577200918
1760555097742432300,5.856432373046875,0.005254267266392707,-0.05931030363533645,0.044053442064300175
1760555097752437200,5.866437255859375,-0.0005728314518928528,-0.08754049155064858,0.04005754082854837
1760555097762441500,5.87644140625,0.025592706418037414,-0.09515493034343235,0.11558878356041385
1760555097772446500,5.886446533203125,0.023805823001265526,-0.08444153002146632,0.07568415000494569
1760555097782450400,5.896450439453125,0.0024275194078683853,-0.0864801962422207,0.01614582803370431
1760555097792454100,5.9064541015625,0.016936521753668783,-0.11750943115837871,0.01969327311590314
1760555097802459100,5.916459228515625,0.024269933381676673,-0.08347295898394659,0.03290757774235681
1760555097812463400,5.92646337890625,-0.01701075603365898,-0.06883912924865726,0.017257488203188405
1760555097822467300,5.93646728515625,0.019193945291638374,-0.06426844206594395,0.051129298734664916
1760555097832472300,5.946472412109375,0.06838847657144069,-0.14347517213989047,0.1387345991498325
1760555097842476300,5.956476318359375,0.06493336768150329,-0.1822877361423336,0.11230360614359378
1760555097852481300,5.966481201171875,0.028114333850145338,-0.14181673740837722,0.10701454155845568
1760555097862485500,5.976485595703125,0.011902034717798233,-0.04740525954312179,0.12177163691380992
1760555097872489500,5.986489501953125,0.026374212184548378,-0.09292598398127593,0.11525261040860786
1760555097882494500,5.996494384765625,-0.020754034215211867,0.015698413059767335,-0.024727047765720635
1760555097892498200,6.006498291015625,-0.00909925225675106,-0.06978245168048888,-0.031413220131909475
1760555097902503200,6.016503173828125,0.0053664954692125314,-0.07234704147148877,0.043457184071047227
1760555097912507400,6.02650732421875,0.03696867143511772,-0.11371860577436163,-0.023294055820535866
1760555097922511400,6.036511474609375,-0.042457331979274746,-0.06621310529373586,-0.09522489030710421
1760555097932516400,6.046516357421875,0.016943536016345025,-0.056990687881619664,0.055011693125963206
1760555097942520300,6.056520263671875,-0.027452070549130438,-0.004787219435157021,0.04965029395697638
1760555097952525300,6.066525390625,-0.058985857453942296,0.0037033057891239876,0.018538915449008344
1760555097962529500,6.076529541015625,0.0017705168038606642,-0.019387686898605896,0.09815856000566854
1760555097972533500,6.086533447265625,-0.0022474866658449173,-0.00896627124355873,0.10636532953525893
1760555097982538500,6.09653857421875,0.008408347383141517,-0.03753669884772971,0.05449695767001249
1760555097992542200,6.106542236328125,0.019180501288175583,-0.08875087198740803,0.09036136679081246
1760555098002546400,6.11654638671875,0.03488426637649536,-0.08862909963810815,0.12252411751523613
1760555098012551400,6.126551513671875,0.020526070678234098,-0.07343258538560475,0.10738417858844622
1760555098022555400,6.136555419921875,0.018420038309693337,-0.07756457519037649,0.07555911711947992
1760555098032560400,6.146560302734375,0.026033435922861097,-0.07797240707259624,0.08155796480863355
1760555098042564400,6.156564453125,-0.008683072671294211,-0.07093148471829482,0.052619957417529076
1760555098052564700,6.166564697265625,0.003437573233246803,-0.07090616761394776,0.006109331459458917
1760555098062569700,6.17656982421875,0.012245733588933943,-0.08443436962831764,0.06717427847608924
1760555098072573700,6.18657373046875,0.03123042004406452,-0.11176408330625853,0.07004002490444108
1760555098082578700,6.19657861328125,0.03406476668715477,-0.12126260054628364,0.05741010517035611
1760555098092582700,6.206582763671875,0.03494447213113308,-0.0969109893636778,0.06406259446265175
1760555098102586600,6.216586669921875,0.01590659418404102,-0.07987152782534249,0.08865828006681986
1760555098112591600,6.226591552734375,0.027995091384649274,-0.07298682351263705,0.07518506877585314
1760555098122595600,6.236595703125,0.014194529569149017,-0.07698635517731309,0.07842918352992273
1760555098132600600,6.2466005859375,0.015799626678228377,-0.09289060214064083,0.05909993968713097
1760555098142604500,6.2566044921875,0.024155951613187787,-0.11270084356656297,0.01811952099315822
1760555098152608500,6.2666083984375,0.0023088614642620083,-0.07813145182551816,-0.01628375693336129
1760555098162613500,6.276613525390625,0.0030406828701496124,-0.08941100726341829,0.015663506143167614
1760555098172617700,6.28661767578125,0.03652385027706623,-0.08702647761390545,0.0836897800724022
1760555098182622700,6.296622802734375,0.0062777650952339165,-0.04955796233129222,0.0781207203689497
1760555098192626700,6.306626708984375,-0.021724925073981285,-0.011667109433782751,0.06157328926441259
1760555098202630400,6.31663037109375,-0.004573883786797523,-0.03548557500420138,0.11579505585539154
1760555098212635400,6.326635498046875,0.049101007777452466,-0.08955078106028959,0.09207784271934069
1760555098222639600,6.3366396484375,0.0032850130200386047,-0.08295271623581647,0.053095447708480056
1760555098232643600,6.3466435546875,0.010723638588190079,-0.06683511878275313,0.021548655191622672
1760555098242648600,6.356648681640625,0.026865795093774795,-0.08490899226958863,0.01312690033763647
1760555098252652500,6.366652587890625,0.016990882289409637,-0.09140863822088577,-0.009693911947961896
1760555098262657500,6.376657470703125,0.017567220872640607,-0.038741677023586815,0.026048962285555897
1760555098272661800,6.386661865234375,-0.009970774394273758,-0.018667088997986865,0.03543972656847909
1760555098282665500,6.39666552734375,-0.005608487531542777,-0.04836182961559388,-0.01555586278392002
1760555098292670500,6.40667041015625,0.028973581027984616,-0.06547637481729034,-0.011144603946618736
1760555098302674400,6.41667431640625,-0.006920154651999473,-0.023532700581732204,0.03386745401676744
1760555098312679400,6.426679443359375,-0.001662380254268646,-0.02903380961550865,0.050466012520343065
1760555098322683600,6.43668359375,0.030046763217449188,-0.05522593866484239,0.06832138441829011
1760555098332687600,6.4466875,0.016260229927301407,-0.07381817803655286,0.12850300926174968
1760555098342692600,6.456692626953125,-0.006802081230282783,-0.0215965083547635,0.07122653127526864
1760555098352696600,6.466696533203125,0.021757658299803733,-0.09653979969741776,0.04253240650948137
1760555098362701600,6.47670166015625,0.037168577921390535,-0.11614229839048347,0.013378884071018546
1760555098372705800,6.486705810546875,-0.0038309564650058745,-0.08916190960686653,0.045752227072510865
1760555098382709500,6.49670947265625,0.031468320453166956,-0.07892276659999042,0.0907845789052546
1760555098392714500,6.506714599609375,0.023833295530080793,-0.10051298677786252,0.06432628690013661
1760555098402718500,6.516718505859375,-0.01597206063568592,-0.06713591009392403,0.050218193505425
1760555098412722700,6.52672265625,0.024570962154865265,-0.10515068391533568,0.03763511772090569
1760555098422727700,6.536727783203125,0.03429682187736034,-0.13422527763238176,0.03593850640347227
1760555098432731600,6.546731689453125,0.04104161996245384,-0.13941396884927526,0.0033401590070687233
1760555098442736600,6.556736572265625,0.03071370269358158,-0.0969637059316039,0.05847586210519075
1760555098452740600,6.56674072265625,0.0072141691625118255,-0.06960105353186372,0.07814204628476873
1760555098462744800,6.576744873046875,-0.008490764969587325,-0.033890946773497854,0.0323229462548159
1760555098472749800,6.586749755859375,0.01350070208609104,-0.06903234569923952,0.024556202977150676
1760555098482753500,6.59675341796875,0.01753974834382534,-0.052355589126609266,0.027682061646413056
1760555098492758500,6.606758544921875,0.027131168031692503,-0.09206132084280252,0.027705753049254416
1760555098502762500,6.616762451171875,0.022790508478879926,-0.09440750950961373,0.026354977761115877
1760555098512766700,6.6267666015625,0.025184710139036177,-0.057683337187743745,0.030296372330654412
1760555098522771700,6.636771728515625,0.024775544816255567,-0.11259586708843708,-0.005314655684120953
1760555098532775700,6.646775634765625,0.01938976012468338,-0.10775304843345657,0.029550979057140648
1760555098542780700,6.65678076171875,0.055579263880848884,-0.09330460803532041,0.13283586910059675
1760555098552784600,6.66678466796875,0.012053425887227057,-0.05649217747468501,0.10268359968205913
1760555098562788600,6.67678857421875,0.011140987217426299,-0.05218494526743889,0.06077042104946449
1760555098572793600,6.686793701171875,0.050014615491032595,-0.07978072600304148,0.0952864386354573
1760555098582797600,6.696797607421875,0.016229250267148016,-0.10502495691012591,0.007020582819171249
1760555098592802600,6.706802490234375,-0.007236965516209602,-0.07593628443537745,-0.04260473196017556
1760555098602806500,6.716806640625,0.01685702677667141,-0.061803933382243846,-0.0008464242288842797
1760555098612810500,6.726810546875,-0.008543371939659119,-0.031939497611892874,0.0343392636464443
1760555098622815500,6.7368154296875,-0.029323125118017195,-0.01804257644956233,0.026933298238879067
1760555098632819700,6.74681982421875,0.02424772154986858,-0.04810250282597262,0.059096350357402114
1760555098642824700,6.75682470703125,0.02831599390208721,-0.06787124776430428,0.04678797246157192
1760555098652828700,6.76682861328125,0.017696400210261344,-0.09385583957675844,0.04538128400142304
1760555098662832400,6.776832275390625,0.038626375514268875,-0.09526086580278352,0.11980271146101876
1760555098672837400,6.78683740234375,0.02769990783035755,-0.08900269132400862,0.11680651618656701
1760555098682841600,6.796841552734375,0.029169395861029623,-0.11405854178583248,0.10324850355582312
1760555098692845600,6.806845458984375,0.002952420064806938,-0.059647965491330245,0.10412036362006329
1760555098702850600,6.8168505859375,-0.02428571547269821,-0.0174196907442878,0.030506918941950425
1760555098712854500,6.8268544921875,-0.00874503199160099,-0.02283670169118559,0.002275561982858926
1760555098722859500,6.836859619140625,0.028047698354721068,-0.05953444038056768,0.015735055275727064
1760555098732863700,6.84686376953125,0.04587210885882377,-0.12147006015134974,-0.020304198955325408
1760555098742867700,6.85686767578125,0.0578396100282669,-0.15132617790121583,0.019091946221888065
1760555098752872700,6.866872802734375,0.07129296584129333,-0.17342713321335612,0.10689261394552886
1760555098762876400,6.87687646484375,0.03239654121398926,-0.12489356832662596,0.067338474328164
1760555098772881400,6.88688134765625,-0.006664134064316749,-0.04248078592009842,0.04853389368029311
1760555098782885600,6.8968857421875,-0.012967618122696875,-0.017712796505924777,0.07426949743404984
1760555098792889600,6.9068896484375,-0.011622633254528045,-0.03718716160756303,0.04070128209218383
1760555098802894600,6.91689453125,0.007237550038099288,-0.06927065710029565,0.003481101847719401
1760555098812898600,6.926898681640625,-0.005189969858527183,-0.04371047384552657,0.034096349135506895
1760555098822903600,6.936903564453125,-0.00175415019094944,-0.06943323638401926,0.05908354567475617
1760555098832907800,6.94690771484375,0.04553191711902618,-0.09064524349980056,0.04687936793891713
1760555098842911700,6.956911865234375,0.02516249830722809,-0.08094196093529463,0.06739584880489856
1760555098852916700,6.966916748046875,0.026032266879081726,-0.07976608555633574,0.09929271513475105
1760555098862920400,6.97692041015625,0.0007242226213216781,-0.0701023632506607,0.1029503791257739
1760555098872925400,6.986925537109375,0.006980944928526878,-0.08506693191081285,0.07883748120302334
1760555098882929700,6.9969296875,0.025817747345566747,-0.09238772151926532,0.046039665711764245
1760555098892933600,7.00693359375,0.014278700721263885,-0.06422249316552188,0.058841535346116865
1760555098902938600,7.016938720703125,0.015738251879811285,-0.09256300502093508,0.053533272870164364
1760555098912942600,7.026942626953125,0.04446165753901005,-0.12231275805318727,0.02460429816888645
1760555098922947600,7.036947509765625,0.002910334488749504,-0.08958066474189981,-0.058658707858808334
1760555098932951800,7.046951904296875,-0.000824175864458084,-0.06209756430026609,-0.03113713400373235
1760555098942955500,7.05695556640625,0.06142331373393535,-0.1721193750830367,0.04105698192836717
1760555098952960500,7.06696044921875,0.0063899932980537415,-0.06539391613164916,0.05605893715657293
1760555098962964500,7.076964599609375,-0.02500467739701271,-0.03351831178553402,0.05056603882871568
1760555098972968700,7.08696875,-0.03324643604159355,-0.00594849204167258,0.056749896829109636
1760555098982973700,7.0969736328125,0.033633974054455756,-0.06911980478698387,0.07659775771852582
1760555098992977700,7.106977783203125,0.017362053689360616,-0.09658986765053122,-0.021855145591218022
1760555099002982700,7.116982666015625,-0.011644845086336135,-0.08492973366351797,-0.002681128842756152
1760555099012986600,7.126986572265625,0.030394553741812703,-0.06284166066583712,0.06523940142337233
1760555099022990600,7.136990478515625,0.01082943705022335,-0.03484849181021563,0.06102649643607437
1760555099032995600,7.14699560546875,-0.04136076891422272,-0.03232946732714772,0.027993465683143585
1760555099042999600,7.15699951171875,0.013996376648545264,-0.0361251287164865,0.0629517471439205
1760555099053004800,7.1670048828125,0.016277181062102318,-0.05330952428400051,0.008891820051148533
1760555099063008800,7.1770087890625,-0.02005202342569828,-0.10086562700727954,-0.01395644649695605
1760555099073012700,7.1870126953125,0.04623392790853977,-0.09631233848393894,0.08337457664338871
1760555099083017700,7.197017822265625,0.0339981311917305,-0.08982580774254165,0.07281810218249447
1760555099093022000,7.20702197265625,0.005431377398967743,-0.13988925821082665,0.06237541769384406
1760555099103027000,7.21702685546875,0.08759060516953468,-0.16354957179417834,0.06709295686818659
1760555099113031000,7.227031005859375,0.010865092885494232,-0.11436414626943878,0.025767149669490754
1760555099123034600,7.23703466796875,0.016259645405411718,-0.08296848919368348,0.028361504411092028
1760555099133039600,7.24703955078125,0.01882277389168739,-0.02175237705319887,0.07609779970659875
1760555099143043800,7.2570439453125,-0.03547755609452724,-0.009048537562132697,0.053568545112945135
1760555099153048800,7.267048828125,0.0008867197066545486,-0.006846578529957332,0.07716713683800772
1760555099163052800,7.277052734375,-0.019284546184539793,-0.006882969584167585,0.03472079204362817
1760555099173056800,7.287056884765625,-0.011487608698010444,-0.037239270820713134,-0.0328105014428962
1760555099183061800,7.297061767578125,0.03598258300721645,-0.07828456002799794,0.011857711518881842
1760555099193066000,7.30706591796875,-0.00902910962998867,-0.05784366971545387,0.00271979861902073
1760555099203071000,7.317071044921875,0.039327217260003086,-0.09025202466482296,0.061614178397227076
1760555099213075000,7.327074951171875,0.037706338059902186,-0.13471411146209575,0.04715467774895951
1760555099223078700,7.33707861328125,-0.0025379940450191494,-0.0645776130463928,0.08912823566612788
1760555099233083600,7.347083740234375,0.01559738210439682,-0.07207837146478704,0.058159946290124206
1760555099243088000,7.357087890625,-0.009973112481832504,-0.07838676916030235,-0.0038353129797149446
1760555099253091800,7.367091796875,0.014886018964648246,-0.04159057734841481,0.05424728462472558
1760555099263096800,7.377096923828125,-0.012483049476146698,-0.028342034808930473,0.04158384621352888
1760555099273100800,7.387100830078125,-0.007088496956229209,-0.02905713797545759,0.06784390309965238
1760555099283105800,7.397105712890625,-0.004379237997531891,-0.023569356497423723,0.04289267292292789
1760555099293110000,7.407110107421875,-0.001835398733615875,-0.015309500507148913,0.06318731859861873
1760555099303113700,7.41711376953125,0.018666706547141074,-0.04973542409031652,0.06968546671257354
1760555099313118700,7.42711865234375,-0.0007972878575325012,-0.07748161874781362,0.08841867175782099
1760555099323122700,7.437122802734375,0.03481061661839485,-0.11102945802193134,0.08336523342630825
1760555099333127700,7.447127685546875,0.013864274701476097,-0.11634216834413819,0.035094767322018744
1760555099343132000,7.4571318359375,0.018197919991612434,-0.10176163513208739,0.0521681767957285
1760555099353135900,7.467135986328125,0.03542027294933796,-0.12215561299640684,0.028752513022674245
1760555099363140900,7.477140869140625,-0.006025836160778999,-0.06938952967303338,-0.013161944251554087
1760555099373144800,7.487144775390625,0.009988894572854042,-0.006294252151620458,0.05153957830229774
1760555099383149800,7.49714990234375,0.000702010789513588,-0.03788606712453765,0.075721340210177
1760555099393153800,7.50715380859375,0.03899579334855079,-0.11481889516646042,0.09727377652777358
1760555099403157800,7.51715771484375,0.02162672539651394,-0.06570574942664242,0.05264908304731361
1760555099413162800,7.527162841796875,0.008742693904042243,-0.0665897748527117,0.06997427532500587
1760555099423166700,7.537166748046875,-0.026877485531568525,-0.02269421763070859,0.05805128001756966
1760555099433171700,7.547171630859375,0.003923895445466041,-0.0201724988670554,0.06739313625800424
1760555099443175700,7.55717578125,0.036978023785352705,-0.06230987361038569,0.09554188383440486
1760555099453180000,7.567179931640625,-0.0133107324719429,-0.05430582357866224,0.017047325184382497
1760555099463185000,7.577184814453125,0.03845686416625976,-0.09283214081851765,0.031791003935737534
1760555099473188900,7.58718896484375,0.025453005686402318,-0.09753870194111951,-0.010117361524421721
1760555099483193900,7.59719384765625,0.01139759232699871,-0.09812289503724314,-0.03618637108416296
1760555099493197800,7.60719775390625,0.021285364612936973,-0.0797315165664535,0.037445129840448496
1760555099503201800,7.617201904296875,0.009457564175128936,-0.05011847772430628,0.07829829629240558
1760555099513206800,7.627206787109375,0.04161269784867763,-0.07078287459441926,0.109674070490757
1760555099523210800,7.637210693359375,0.01854629503786564,-0.08579362048385664,0.10260421430291608
1760555099533215700,7.6472158203125,0.025695582270622252,-0.08603770403857343,0.08647004930754192
1760555099543219700,7.6572197265625,0.04647358188331127,-0.11906575722228735,0.050236359349777916
1760555099553224000,7.667223876953125,0.029251813447475433,-0.11788591805426403,0.015805627160752192
1760555099563229000,7.67722900390625,0.019679682981967924,-0.07230364072117954,-0.029674084847001358
1760555099573233000,7.68723291015625,-0.009358195453882216,-0.0316018517389195,0.021690502214571458
1760555099583236600,7.697236572265625,0.011427402943372725,-0.039945029497938225,0.09710277647557668
1760555099593241900,7.707241943359375,0.021276012262701986,-0.05144743390628136,0.10591822508857585
1760555099603245800,7.717245849609375,-0.008517068454623222,-0.028847707892302423,0.08795954807978124
1760555099613250800,7.727250732421875,-0.017650222980976103,-0.01107445218670182,-0.0279586409649346
1760555099623254800,7.7372548828125,0.019900632256269455,-0.04430406952423509,-0.021965181836951522
1760555099633258800,7.7472587890625,-0.005528992554545403,-0.03565191029772395,-0.014297277557570487
1760555099643263700,7.757263671875,0.000006429740786552429,-0.062421403126884246,-0.011223423070181161
1760555099653268000,7.76726806640625,0.03292144187092781,-0.07076871363832615,0.06580715484134853
1760555099663273000,7.77727294921875,-0.005551204386353492,-0.07492574655280913,0.10099374689897522
1760555099673277000,7.78727685546875,0.051290042254328726,-0.12357676837332546,0.0962614120143
1760555099683280600,7.79728076171875,0.029716508349776266,-0.1234206553630065,0.07591505441768094
1760555099693285600,7.80728564453125,0.006515665504336357,-0.08555092516862786,0.03665923102661036
1760555099703289900,7.817289794921875,0.020433131697773933,-0.12031462477222084,-0.017137131492840126
1760555099713294800,7.827294921875,0.043020226559042925,-0.11800906037674284,0.02124830227186903
1760555099723298800,7.837298828125,0.016085457882285117,-0.08471945191370323,0.05310812452696263
1760555099733302800,7.847302734375,-0.008608838391304016,-0.031868457652698266,0.04498107830323279
1760555099743307800,7.857307861328125,0.007549100205302238,-0.027867864258808547,0.051964680979726834
1760555099753312000,7.86731201171875,-0.002483048987388611,-0.043984564379439685,0.038980586646264415
1760555099763317000,7.87731689453125,0.003803483936190605,-0.024885692943132014,0.03792171610994264
1760555099773321000,7.887321044921875,-0.005016366857290268,-0.029795679099787958,0.02327968023531139
1760555099783324700,7.89732470703125,0.011592238116264343,-0.05164677413697354,0.031449506154842675
1760555099793329700,7.90732958984375,0.0027677111476659775,-0.03015914896718459,0.05908160944599658
1760555099803333600,7.917333740234375,-0.028655601119995114,-0.02000448078981135,0.06498670530393719
1760555099813339000,7.9273388671875,-0.004575052830576897,-0.050630975557398046,0.08202168246340007
1760555099823342800,7.9373427734375,0.023401333853602407,-0.058668398135760795,0.06337721514753065
1760555099833346800,7.947346923828125,0.006794482445716858,-0.052062309835036284,0.02126781982309185
1760555099843351800,7.957351806640625,0.0068014967083930965,-0.06371060268720612,0.013143760140892118
1760555099853355800,7.967355712890625,0.012498831567168234,-0.06726991173713467,0.0162819577019196
1760555099863360800,7.97736083984375,0.011909633502364158,-0.09295930172898806,0.02844405899485573
1760555099873365000,7.987364990234375,0.02119359467625618,-0.10396795867048203,0.044489705456560474
1760555099883368700,7.99736865234375,0.011761164942383766,-0.06599026088987012,0.07212959932852536
1760555099893372700,8.00737255859375,0.025219196930527685,-0.07526745896283536,0.1018498431385029
1760555099903377700,8.017377685546874,-0.018332944548130035,-0.0011843349633389151,0.06682063359967433
1760555099913382000,8.0273818359375,-0.00846972218155861,-0.01672481979832519,0.051308144166599956
1760555099923385900,8.0373857421875,0.004545826736092567,-0.04320869833584875,0.03394020872572437
1760555099933390800,8.047390869140624,-0.00293839153945446,-0.05619999416165519,0.005564849319215864
1760555099943394800,8.057394775390625,0.03327390857040882,-0.09472699638810009,0.018444378166506067
1760555099953399800,8.06739990234375,0.008582534906268119,-0.10107194496802985,0.025576339805126188
1760555099963403800,8.07740380859375,0.030879122388362882,-0.11798695814278908,0.041110346950264644
1760555099973407700,8.08740771484375,0.04090776444971561,-0.1347003021324519,0.014100741205317898
1760555099983412700,8.097412841796874,0.03012976532578468,-0.10883691641371697,0.038611241877218705
1760555099993416700,8.107416748046875,0.01845335605740547,-0.0602288706518244,0.059682552747521544
1760555100003421700,8.117421630859376,0.010060790765285491,-0.04599762580147944,0.07170493504251353
1760555100013426000,8.127426025390625,0.02560731946527958,-0.06690043453734833,0.06671844273367897
1760555100023430000,8.137429931640625,0.009136661657691001,-0.04418264423480723,0.060381303000869226
1760555100033435000,8.147434814453124,0.0003021978169679642,-0.045748879771376955,0.029014397095562888
1760555100043438800,8.15743896484375,0.003598316752910614,-0.04900607320272829,0.01591038444316946
1760555100053442800,8.16744287109375,0.007788169658184051,-0.05834689739670138,0.012011495574796572
1760555100063447800,8.17744775390625,0.04355623313188552,-0.06327900177033152,0.035800522704888135
1760555100073451800,8.18745166015625,0.0010568155765533446,-0.024361671352316625,0.04553344235583208
1760555100083456800,8.197456787109376,0.01317220078408718,-0.024691937636432702,0.05904722311920486
1760555100093460700,8.207460693359375,0.022151041531562804,-0.05393939228591043,0.07022790302620269
1760555100103464700,8.217464599609375,0.007032967376708984,-0.04646306048929691,0.05123584611536935
1760555100113469700,8.2274697265625,0.01959843443930149,-0.04385468178892042,0.05378297331491485
1760555100123473700,8.2374736328125,0.022147534400224683,-0.06624079245168249,0.02846128412429243
1760555100133478700,8.247478759765626,0.01303016196489334,-0.0854382311749272,0.019132470028521493
1760555100143482600,8.257482666015624,0.020667524975538254,-0.08231502112047746,0.03430832965206355
1760555100153486800,8.26748681640625,0.016639584633707998,-0.07653839221410452,0.046675397198880086
1760555100163491800,8.277491943359376,-0.00923427681326866,-0.053159863847354424,0.029500701041473076
1760555100173495800,8.287495849609375,0.0033399580776691433,0.0010073546928048016,0.040144022668758404
1760555100183500800,8.297500732421875,0.031626141363382335,-0.05101865056757815,0.04074959647962823
1760555100193504500,8.30750439453125,0.01950607998073101,-0.08331040709968655,0.029923721359670162
1760555100203508700,8.3175087890625,0.013369184660911559,-0.0654148447552463,0.03855342900906689
1760555100213513700,8.327513671875,0.03056172700226307,-0.0793795065246988,0.07579784864564426
1760555100223517700,8.337517578125,0.0196241534024477,-0.08027744174511171,0.09018169937497005
1760555100233523700,8.347523681640626,0.025445406901836394,-0.07369836931547616,0.06867009739126079
1760555100243527700,8.357527587890624,0.014959084200859068,-0.04513102643424645,0.02738139819940552
1760555100253532700,8.36753271484375,0.03305179025232792,-0.11271373958075419,-0.0018826719414442776
1760555100263536600,8.37753662109375,0.03528875552415848,-0.1097823075050488,0.005912237984780222
1760555100273540600,8.38754052734375,0.002358545824885368,-0.05238631305843591,0.05364582986654713
1760555100283545900,8.3975458984375,0.003981178590655327,-0.022752023648994507,0.08967769537558778
1760555100293549800,8.4075498046875,0.006061491996049881,-0.05084000606504269,0.07049602504363284
1760555100303554800,8.417554931640625,0.017123568758368492,-0.036218067696946674,0.041447844409476964
1760555100313558500,8.42755859375,0.008889408898353577,-0.0071846251200855474,0.0156769136140123
1760555100323562500,8.4375625,0.011437924337387084,-0.05982558708055876,-0.023091391121596097
1760555100333567700,8.447567626953125,0.01743336535990238,-0.0883135217497591,-0.031199001992493865
1760555100343571700,8.45757177734375,0.01610416258275509,-0.07212426556628197,-0.0014482991121709345
1760555100353576700,8.46757666015625,-0.0049789574563503265,-0.030551744464365763,0.03873274023188278
1760555100363580700,8.47758056640625,-0.00391045144200325,-0.010714044209360144,0.04129707429455593
1760555100373584600,8.487584716796874,-0.02110416282713413,-0.004508613983386021,0.028145222178753464
1760555100383589600,8.497589599609375,0.02440554246008396,-0.048151506766583765,0.02762338112858124
1760555100393593900,8.50759375,0.01155833584666252,-0.08769344448950141,0.022061490951431915
1760555100403598800,8.517598876953125,0.03610708616971969,-0.06475762752210722,0.03617213249625638
1760555100413602600,8.5276025390625,0.027439211067557333,-0.07078940023332835,0.0576151353563182
1760555100423606500,8.5376064453125,0.03118073568344116,-0.07859278572695329,0.04755088312546722
1760555100433611500,8.547611572265625,0.030433716708421706,-0.08877813445366918,0.08037286494360305
1760555100443615700,8.55761572265625,-0.0035322657793760296,-0.029105756040289997,0.06515330317565239
1760555100453620700,8.567620849609375,-0.006229249778389931,-0.01072171605916228,0.06795223144548945
1760555100463624700,8.577624755859375,0.01652326477766037,-0.03233539017785806,0.03557314368980005
1760555100473628700,8.587628662109376,0.004405541482567787,-0.07057383952019736,0.021888646002020687
1760555100483633700,8.597633544921875,0.021466566398739815,-0.051873637128830884,0.03953168119038455
1760555100493638000,8.607637939453125,0.009352350234985351,-0.052816128443600605,0.03894578019436449
1760555100503643000,8.617642822265625,0.009506664013862609,-0.04580715843040962,0.03979834190309047
1760555100513646600,8.627646484375,0.014151274949312209,-0.01973893432195764,0.025289193426817656
1760555100523650600,8.637650634765626,0.00950315688252449,-0.04142636323003098,0.05873811150426045
1760555100533655600,8.647655517578125,0.01669043803811073,-0.045581103722727855,0.0675067983660847
1760555100543659800,8.65765966796875,0.011747136417031288,-0.06227800803424324,0.012088058809190987
1760555100553664800,8.667664794921874,0.044507834768295285,-0.10942602314697578,0.04908732631197199
1760555100563668700,8.677668701171875,0.03658697864115238,-0.13020122801437972,0.016835646061925218
1760555100573672700,8.687672607421876,0.008005027279257775,-0.07395095127047971,0.015290380248147993
1760555100583677700,8.697677734375,0.03688742289245128,-0.0707819019134622,0.047156166453147304
1760555100593681700,8.707681640625,0.013543956705927849,-0.08599535360103473,0.03116063361032866
1760555100603686700,8.717686767578124,0.006655950757861137,-0.01925984328483464,0.048475204029306766
1760555100613690600,8.727690673828125,-0.008469137659668922,0.0017891861133568453,0.06312986192349344
1760555100623694600,8.737694580078125,0.009913491249084472,-0.008299266693700338,0.10312520596971735
1760555100633699600,8.747699462890624,-0.008055880683660506,-0.02194972397291567,0.06299417977984995
1760555100643703800,8.757703857421875,0.0006178396373987198,-0.05394764409102499,-0.023822655405057593
1760555100653708800,8.767708740234376,0.045211599123477934,-0.09327572900070809,-0.009036754080327227
1760555100663712800,8.777712646484375,0.007498831322789192,-0.055519592415750954,0.04126998535823077
1760555100673716700,8.787716796875,0.013789455899596214,-0.06491490044305101,0.023494820823334157
1760555100683721700,8.7977216796875,0.03158464030921459,-0.0990858674510382,0.0630031394044403
1760555100693725700,8.8077255859375,0.04174363075196743,-0.0943949148895219,0.10182254413962363
1760555100703730700,8.817730712890626,0.02439560558795929,-0.09762890097522177,0.012515883166668936
1760555100713734700,8.827734619140625,0.025133856734633444,-0.07851049600467086,0.010509941038582474
1760555100723738600,8.837738525390625,0.015582184535264968,-0.050999630773277016,0.0283225058412645
1760555100733743600,8.84774365234375,-0.06818389391005039,0.020911277453403453,-0.06507385386442766
1760555100743747600,8.85774755859375,0.00019055413603782652,0.04033595591112971,0.023531490438757463
1760555100753751800,8.867751708984375,0.04898410339951515,-0.03702907126928912,0.051737923019146544
1760555100763756800,8.8777568359375,-0.030621932756900786,-0.052170263721537775,0.0575943391634617
1760555100773760800,8.8877607421875,0.023513562056422233,-0.04669197387434542,0.12851395078087224
1760555100783765800,8.897765869140626,0.033359833288192746,-0.021868950354284607,0.1298348880531732
1760555100793769500,8.90776953125,0.0029401451051235196,-0.0646728535817936,0.07833941375408321
1760555100803774700,8.917774658203125,0.09494681315124034,-0.21291644569989293,0.018615816610120236
1760555100813778700,8.92777880859375,0.023709376889467237,-0.13685288618961347,-0.006253050779085606
1760555100823782700,8.93778271484375,0.00348608855009079,-0.08675335062779485,0.018927841701358555
1760555100833787600,8.94778759765625,0.03507131338119507,-0.05458491451467853,-0.014262699434533715
1760555100843791600,8.95779150390625,0.01771276682317257,-0.07798381438259966,0.017454389881622047
1760555100853795800,8.9677958984375,0.05568155521154403,-0.1138029139237944,0.1121681066630408
1760555100863800800,8.97780078125,0.05297229625284672,-0.0911363149523735,0.12487818809440358
1760555100873804500,8.987804443359375,-0.029485622203350065,-0.017368276792526012,0.04148466928852722
1760555100883809800,8.997809814453126,-0.0067751932233572005,-0.005622379059577361,0.04166736891167238
1760555100893813500,9.0078134765625,-0.013672551521658896,0.0019155775555584112,0.04283215664103627
1760555100903817700,9.017817626953125,-0.005457096362113952,0.0024112190103274768,-0.005420764673408121
1760555100913822700,9.02782275390625,0.0033405425995588303,-0.019823648896766827,0.023027769567165523
1760555100923826700,9.03782666015625,0.018881226080656052,-0.07298899720341433,0.07058277174532412
1760555100933831700,9.047831787109375,0.03247369810342789,-0.11655059606358409,0.04092164684459567
1760555100943835600,9.057835693359374,0.021666472885012625,-0.0800147356883157,0.08314674097057431
1760555100953839900,9.06783984375,0.015649404552578926,-0.05435059430215042,0.0834849234163761
1760555100963844900,9.077844970703126,0.021298224094510078,-0.06988690756880678,0.049554651562776414
1760555100973848600,9.0878486328125,0.023205519020557404,-0.08164106738166883,0.060098056479543444
1760555100983853600,9.097853515625,0.010885551151633262,-0.0649691559475148,0.06049648121260106
1760555100993857500,9.107857421875,0.03821019592881202,-0.09662079251175745,0.09408594027189537
1760555101003861800,9.11786181640625,0.022746669337153434,-0.0756522524627624,0.0557981307959184
1760555101013866800,9.12786669921875,-0.007988660666346549,-0.024718912408326285,0.030345143375825136
1760555101023870700,9.13787060546875,0.0311702142894268,-0.07760291617307812,0.025713300590403377
1760555101033875700,9.147875732421875,-0.0004424830704927444,-0.0787218189341016,-0.00536857782844454
1760555101043879700,9.157879638671876,0.0014624737679958342,-0.04894366179127246,0.03018416239414364
1760555101053883600,9.167883544921875,-0.03790390645861626,0.014855545052926755,-0.01981331929899752
1760555101063888600,9.177888671875,-0.002006079125404358,-0.022153993823763447,-0.011287665679119527
1760555101073892400,9.187892333984376,0.027031799310445782,-0.0231961872199201,-0.04909607587400824
1760555101083897300,9.1978974609375,0.004162964898347854,-0.041200413553626275,-0.06250592133887112
1760555101093901300,9.2079013671875,0.011682839009165762,-0.04674292774344794,-0.011891787318419665
1760555101103905500,9.217905517578124,-0.006975099709630012,-0.04996854329302441,0.05158173694359138
1760555101113910500,9.22791064453125,0.005026888251304626,-0.07133983719032258,0.07528448316287249
1760555101123914500,9.23791455078125,0.04080255050957202,-0.07991439885268918,0.05190751656554639
1760555101133919500,9.24791943359375,0.02658113293349743,-0.10042014826210215,0.06385866938838734
1760555101143923500,9.25792333984375,0.018644494715332985,-0.048858294195914635,0.05084861862976104
1760555101153927400,9.267927490234374,-0.02490004797875881,0.03646841887895716,0.07748935452969745
1760555101163932400,9.277932373046875,-0.004991816937923431,-0.028700241696031296,0.05875473384549841
1760555101173936400,9.287936279296876,-0.008139467313885687,-0.030957274791644885,0.07204793066075071
1760555101183941400,9.29794140625,-0.013996961170434951,-0.016722805937752126,0.0840810261460021
1760555101193945300,9.3079453125,0.020247838258743284,-0.02777887765096966,0.04868999755745753
1760555101203949600,9.317949462890626,0.007112462353706359,-0.06390047640323172,-0.019162344576977193
1760555101213954600,9.32795458984375,-0.01246200668811798,-0.04836378867723979,-0.03441511449478567
1760555101223958500,9.33795849609375,0.02663198633790016,-0.03726017889471259,-0.021043427349533884
1760555101233963500,9.347963623046875,-0.004433598533272743,-0.07714757362101227,-0.011201503499317913
1760555101243967500,9.357967529296875,0.0024731121152639386,-0.03434352197974221,0.018754403096903113
1760555101253971500,9.367971435546876,0.033027824854850764,-0.06421520490820985,0.09126025185929611
1760555101263976400,9.3779765625,0.0026730186015367506,-0.09716343888794071,0.0680931651529856
1760555101273980400,9.38798046875,0.09977847109138965,-0.19028562129475174,0.11518606624472885
1760555101283985400,9.3979853515625,0.04187690174281597,-0.13819294828749262,0.09715488112214953
1760555101293989400,9.4079892578125,-0.012302432212233544,-0.0672161494230153,0.07354775903075933
1760555101303993300,9.417993408203126,0.04618950424492359,-0.036135373832576444,0.0711438944931142
1760555101313998300,9.427998291015625,-0.008292612048983574,-0.011892604735749773,0.03914800650188699
1760555101324002600,9.43800244140625,-0.015353636476397514,0.00044486396971333306,0.040494361343234773
1760555101334007600,9.448007568359374,-0.01223638123869896,0.013969308261817786,0.04882584409788251
1760555101344011500,9.458011474609375,-0.010917699855566024,-0.014714762042480288,0.03379992347219959
1760555101354015200,9.46801513671875,0.03156359752118587,-0.045596342391055075,0.026179968254081903
1760555101364020200,9.478020263671874,-0.0447644398778677,0.044586032837349916,0.006198251851927489
1760555101374024400,9.4880244140625,-0.03071662530303001,0.07466000828871037,0.050760849014762785
1760555101384028400,9.4980283203125,-0.015911854881048203,0.007502226572984364,0.04451209081830457
1760555101394033400,9.508033447265625,0.023744448202848434,-0.08755913231903686,-0.04354129129108041
1760555101404037400,9.518037353515625,0.04992985981702804,-0.16470504370592534,0.02368771304693073
1760555101414042400,9.52804248046875,0.05446867229044437,-0.1430759254229255,-0.04051635397933423
1760555101424046600,9.538046630859375,0.034433599999547,-0.14443093849476427,-0.025273867993522433
1760555101434051600,9.548051513671876,0.05045417595207691,-0.06949794478383846,0.06685693788891658
1760555101444055300,9.55805517578125,0.03564706744253635,-0.07977973048919812,0.07817938262047246
1760555101454059300,9.568059326171875,0.04068681517541408,-0.07094229837325401,0.14023805338218806
1760555101464064300,9.578064208984374,0.06595569646656513,-0.1338557684665546,0.119134950000979
1760555101474068500,9.588068359375,0.015192308434844017,-0.08013826160328462,0.03753211400415748
1760555101484072400,9.598072509765625,0.05600011964142322,-0.08203687089937739,0.06176001660870388
1760555101494077400,9.608077392578124,0.015587445232272148,-0.06841815475707408,0.013525124141294509
1760555101504081400,9.618081298828125,0.003897591960430145,-0.02572098157336004,-0.030940113594289866
1760555101514086400,9.62808642578125,0.020823592320084572,-0.04687493835897184,-0.04347949636755511
1760555101524090600,9.638090576171875,0.0009188684105873108,-0.056143683697422966,-0.03383399013858288
1760555101534094300,9.64809423828125,0.01274608432650566,-0.017503642700694034,0.05348033710652962
1760555101544099300,9.658099365234374,0.007958265528082847,-0.08974535378431901,0.054725240867398675
1760555101554103300,9.668103271484375,0.05148527256548405,-0.1016962782782968,0.06946823463216424
1760555101564108300,9.6781083984375,0.019915829825401306,-0.057127150909975166,0.06090734530212357
1760555101574112500,9.688112548828125,-0.033818682971596715,-0.04256840940462425,0.057791204309277235
1760555101584116500,9.698116455078125,0.009112696260213852,-0.04111455733450129,0.07604204179821536
1760555101594121500,9.70812158203125,-0.011693360403180121,0.002318889097109786,0.05332651651799678
1760555101604125400,9.71812548828125,-0.0018371522992849348,-0.007285835884435801,0.03951895870612934
1760555101614130400,9.72813037109375,0.012222352713346481,-0.049119237553887064,0.06751627858048305
1760555101624134700,9.738134765625,0.031079028874635695,-0.07454573425927664,0.03418083081487566
1760555101634138400,9.748138427734375,0.01749006398320198,-0.06269933871885296,-0.009408610466867685
1760555101644143400,9.758143310546876,0.01901975776851177,-0.07252052574171684,-0.05670729979639873
1760555101654147300,9.768147216796875,0.023381460109353065,-0.06145057620019652,-0.04676801651893183
1760555101664152300,9.77815234375,0.05469312869608402,-0.07000799493151716,-0.006765566878486424
1760555101674156500,9.788156494140624,-0.007677695021033286,-0.015869867486401925,0.007787128478568047
1760555101684160500,9.798160400390625,0.012982815691828726,-0.04507773904416244,0.07110772720118984
1760555101694165500,9.80816552734375,0.0502455016374588,-0.1236891061739996,0.1411205353051424
1760555101704169500,9.81816943359375,-0.013354571613669394,-0.05229149721472058,0.1257184565771371
1760555101714174500,9.828174560546875,-0.017263269490003584,0.022427426770550662,0.06977609500493853
1760555101724178400,9.838178466796874,-0.023726912546157837,0.024508468545018695,0.033008773094508795
1760555101734182400,9.848182373046875,-0.018638064974546432,0.0313240394445369,0.011559285694733261
1760555101744187400,9.8581875,-0.025472879430651664,0.0017173527113627642,-0.05210724038872867
1760555101754191400,9.86819140625,-0.012435118681192398,-0.02389163127132924,-0.017906572362221776
1760555101764196400,9.8781962890625,0.040593876194953915,-0.016254352742363698,0.004397065915167331
1760555101774200300,9.888200439453126,-0.0037719197541475295,-0.09280549027360975,-0.07824563452340662
1760555101784204500,9.89820458984375,0.038918051937222475,-0.11852374103376641,0.03176481918171048
1760555101794209500,9.90820947265625,0.031218729606270788,-0.05485550248383078,0.03481629744051024
1760555101804213500,9.918213623046874,-0.007470774272084236,-0.07750515488702803,-0.02148591042002663
1760555101814218500,9.928218505859375,0.036594577425718304,-0.03449020272472408,0.016804091013036666
1760555101824222200,9.93822216796875,0.007170914542675018,-0.05067381918528117,0.03191542489985004
1760555101834226400,9.948226318359374,0.04176642710566521,-0.05993787921546027,0.12243481353027745
1760555101844231400,9.9582314453125,0.03372457494735718,-0.06324072928628884,0.10017183605683967
1760555101854235400,9.9682353515625,0.03687923958599567,-0.09862702690078877,0.05259664960717782
1760555101864240400,9.978240478515625,0.058632221710681914,-0.1318365558649413,-0.0035229134291410442
1760555101874244400,9.988244384765625,0.032499417066574096,-0.14570441076299176,-0.11139371562390588
1760555101884248600,9.99824853515625,0.04242401423156261,-0.07455666207866743,-0.009763926710560917
1760555101894253600,10.008253662109375,0.0119470429033041,-0.06833700211253017,0.03275453347195871
1760555101904257500,10.018257568359376,-0.02273556342124939,0.014613616922678192,0.0722325117137283
1760555101914262500,10.028262451171875,-0.012383096233010291,0.0013234988367345068,0.1101239514164161
1760555101924266200,10.038266357421875,0.04239303457140922,-0.06950598195982165,0.09842654502578078
1760555101934270500,10.0482705078125,0.048098552736639974,-0.110423354488099,0.07429520726404153
1760555101944275500,10.058275390625,-0.011451368340849876,-0.06468173100799322,0.03116408594273962
1760555101954279400,10.068279541015626,0.02910802106261253,-0.061468714645085853,0.07287881026063114
1760555101964284400,10.078284423828125,0.002478372812271118,-0.06665238262698986,0.05243145824125968
1760555101974288400,10.088288330078125,0.025969138514995573,-0.059674784999596886,0.07801669373889453
1760555101984292600,10.098292724609376,-0.010668693530559539,-0.010087107950053176,0.01683601138810627
1760555101994297600,10.108297607421875,-0.06078735391795635,0.0671921520594973,0.008654065772518515
1760555102004301600,10.118301513671875,-0.015440730237960814,0.04868828509098384,0.10235925396536476
1760555102014305300,10.12830517578125,0.0037391865283250805,-0.0231336045618169,-0.03911578473271802
1760555102024310300,10.138310302734375,0.027545594051480292,-0.07921931099430657,-0.03774843276911415
1760555102034314500,10.148314453125,0.0489817653119564,-0.11936940721082501,-0.03603309848490171
1760555102044319500,10.158319580078125,-0.011732523369789123,-0.12129389073369093,-0.06397581122834235
1760555102054323500,10.168323486328125,0.07254559625089169,-0.11585148961720987,-0.010435451030265538
1760555102064327200,10.1783271484375,0.01976736126542091,-0.11316571199879981,0.038177289173053575
1760555102074332200,10.188332275390625,-0.0062467854350805275,-0.017500289691338548,0.07948032741751522
1760555102084336400,10.19833642578125,0.025787352207303046,-0.03144225214686012,0.14069024499594232
1760555102094341400,10.20834130859375,0.00364858563542366,-0.03306414512711344,0.15128598288814538
1760555102104345300,10.218345458984375,0.045699090379476545,-0.10602368562389164,0.11989231684007681
1760555102114349300,10.228349365234376,0.07606500254869461,-0.15408049984434619,0.08157609412036836
1760555102124354300,10.238354248046875,0.01709142005443573,-0.07300940523720346,0.009307013255916536
1760555102134358500,10.248358642578125,0.008407762861251831,-0.021670450373808853,-0.010805891777854413
1760555102144363500,10.258363525390624,-0.000685059654712677,0.0033089670010725968,-0.06016105697946623
1760555102154367200,10.2683671875,-0.05629647223949432,0.023261530373978892,-0.04212678485065698
1760555102164371200,10.27837109375,-0.008069909209012984,0.013940326479217037,0.06881968932924792
1760555102174376200,10.288376220703125,-0.009098083212971687,0.014128894154145382,0.08330249778786673
1760555102184380400,10.29838037109375,0.022175006929039953,-0.04078266763216816,0.07679183725221082
1760555102194385400,10.308385498046874,0.030995442244410514,-0.07028372486666776,0.08559188736667855
1760555102204389400,10.318389404296875,-0.004012742772698402,-0.07371695985151454,0.014289989300258456
1760555102214393300,10.328393310546875,-0.008166355320811272,-0.047133502530190156,-0.022944045939622446
1760555102224398300,10.3383984375,0.012220014625787734,-0.10771541070365347,0.021296826721867546
1760555102234402300,10.34840234375,-0.010503273835778235,-0.017176682618516497,0.09708301232918165
1760555102244407300,10.3584072265625,0.03318798385262489,-0.01808403640453471,0.10553101586927659
1760555102254411300,10.368411376953125,0.026287118422985076,-0.0370428828822216,0.07782541808364912
1760555102264415200,10.378415283203125,0.03049976768195629,-0.032874668703309726,-0.0005953538109548389
1760555102274420200,10.388420166015624,-0.07016951476931571,-0.010604750032431911,-0.043765510234702376
1760555102284424200,10.398424072265625,0.01842763709425926,-0.04206551965009421,0.0827044405631721
1760555102294429200,10.40842919921875,0.0493868389815092,-0.03092970864799572,0.13852432653317226
1760555102304433400,10.418433349609375,0.03559153786301612,-0.03884991403787862,0.08697883907989598
1760555102314437400,10.428437255859375,0.030962709018588063,-0.089680718449736,0.002008024487318471
1760555102324442400,10.4384423828125,-0.016744214051961897,-0.15227975229900328,-0.06477622262472287
1760555102334446300,10.4484462890625,0.06452654044628144,-0.17475266446238383,-0.025870774440746754
1760555102344451300,10.458451416015626,0.07246843936145306,-0.20329428381389006,-0.038125458521116526
1760555102354455300,10.468455322265624,0.01142681842148304,-0.09359700597748159,0.0027750724702142178
1760555102364459300,10.478459228515625,0.0014104513198137283,-0.06376721454553771,0.03563751872947905
1760555102374464300,10.48846435546875,0.006654781714081764,-0.011295588690671137,0.0394505833447678
1760555102384468200,10.49846826171875,-0.014438275197148322,-0.013228328585228882,0.025475660476204937
1760555102394473200,10.50847314453125,0.01490413914322853,-0.043256514966371465,0.022560837042005732
1760555102404477400,10.5184775390625,-0.019042554122209548,0.02814179724580608,0.061696404187427833
1760555102414481400,10.5284814453125,-0.02679974412024021,0.02065377501139883,0.1263877158745192
1760555102424486400,10.538486328125,-0.026781623941659925,0.07586911921699065,0.1607980628626421
1760555102434490000,10.548489990234375,-0.0016430910319089889,0.044298648997023696,0.17135279289102182
1760555102444495000,10.5584951171875,0.06298632526695729,-0.03421360057331622,0.09496033021993934
1760555102454499300,10.568499267578124,0.005808978539705276,-0.05074491622669156,0.031950322683295236
1760555102464503300,10.57850341796875,-0.029048984351754188,-0.02667720001938287,0.009859601070801726
1760555102474508300,10.58850830078125,-0.046075522476434705,-0.05961522769893054,-0.020352161716320552
1760555102484512300,10.59851220703125,-0.01388064131438732,-0.10639830022309907,0.05020587287996895
1760555102494517200,10.608517333984375,0.06617781478464603,-0.11744842168614268,0.06566258157177363
1760555102504521500,10.618521484375,0.06690729810297488,-0.1115199449526146,0.04529923630773555
1760555102514525400,10.628525390625,0.04937748663127422,-0.08660203252360224,0.022103238600771874
1760555102524530400,10.638530517578126,0.07914601742923259,-0.2601230545654893,-0.03559522309086751
1760555102534534100,10.6485341796875,0.0245300456225872,-0.2138169016709551,-0.15934267642255873
1760555102544539100,10.6585390625,-0.02872515922486782,-0.1528108087020926,-0.0341565685898764
1760555102554543400,10.66854345703125,-0.04921557406783104,-0.029794884515344164,0.005970059986086562
1760555102564547300,10.67854736328125,0.020067805516719817,-0.07151527138904203,-0.006781593281391542
1760555102574552300,10.68855224609375,-0.011668810483813285,-0.062489586692000734,0.0638487416494172
1760555102584556300,10.698556396484374,0.015842881298065183,-0.05931229009644594,0.10200979207372292
1760555102594561300,10.708561279296875,0.028088030365109443,-0.05914932265365496,0.1257902979706414
1760555102604565500,10.7185654296875,-0.009341244319081305,0.019860839101998134,0.06308745668702759
1760555102614569500,10.728569580078124,-0.02610708568096161,0.07109330595019273,0.09692121849674731
1760555102624574500,10.738574462890625,-0.03523264142274856,0.08156724409363232,0.12248906446816399
1760555102634578200,10.748578125,-0.013229483929276465,0.056380707323690875,0.09454051563898101
1760555102644582100,10.75858203125,0.00039221418797969816,0.043312816297449167,0.08634098870093003
1760555102654587400,10.76858740234375,0.017009586989879606,0.0079986249379348,0.08406246757600457
1760555102664591400,10.77859130859375,-0.006323357802629471,0.007301774380728602,0.04799505126297008
1760555102674596400,10.788596435546875,-0.0028711715221405028,-0.059968584880977865,0.017519411091983784
1760555102684600300,10.798600341796876,0.018835633373260496,-0.12729675701083615,0.004061183882661862
1760555102694605300,10.808605224609375,0.02273030272424221,-0.1115224748364184,0.03906795896904077
1760555102704609300,10.818609375,0.033654432320594785,-0.07842867207326926,0.09904772739773615
1760555102714613200,10.82861328125,0.025571663630008696,-0.03078200498970691,0.1347644260103814
1760555102724618200,10.8386181640625,0.022422844210267065,-0.06310085502471774,0.16738001680253073
1760555102734622200,10.848622314453126,0.02720364874601364,-0.022796326298313213,0.11870100642996839
1760555102744626200,10.858626220703124,0.025253099200129508,0.03717817230022046,0.04752850689687766
1760555102754631200,10.868631103515625,-0.004377484431862831,-0.020592395646404475,0.007812217254051938
1760555102764635400,10.878635498046876,-0.000034486791491508485,-0.03409063634735066,-0.037289505453896706
1760555102774640400,10.888640380859375,-0.016779285365343094,-0.019926081791357138,-0.0305297152956482
1760555102784644400,10.898644287109375,-0.033813422274589534,-0.019045435632462613,0.040780626372131513
1760555102794648300,10.9086484375,-0.047106034567952156,0.021343725470360366,0.161593414491415
1760555102804653300,10.9186533203125,0.011857026532292366,-0.02334909220971167,0.18390202120486646
1760555102814657300,10.9286572265625,0.07617956883907318,-0.02224406727699097,0.19212412530090658
1760555102824662300,10.938662353515625,0.0818254657715559,-0.1164874585663434,0.06634258602545597
1760555102834666200,10.948666259765625,0.02117839710712433,-0.10856062022298574,-0.0403868641144596
1760555102844670200,10.958670166015626,0.016662965509295462,-0.1260877648135647,-0.05407898798626847
1760555102854675200,10.96867529296875,-0.04587444694638252,-0.07211607312667183,-0.10874748456459492
1760555102864679400,10.978679443359376,-0.033277415701746936,-0.09884271547808311,-0.046316185664781365
1760555102874684400,10.988684326171875,0.029588498055934904,-0.1148907365599647,0.06976887981286271
1760555102884688400,10.9986884765625,0.0292792859762907,-0.021174958474445154,0.14251165173682384
1760555102894692400,11.0086923828125,0.07936521313786506,-0.028947387140803037,0.17062822320982812
1760555102904697300,11.018697265625,0.02767243530154228,0.005807298039272427,0.13229326839018613
1760555102914701300,11.028701416015625,0.01699731203019619,-0.0065730034484528,0.03046963740517385
1760555102924706300,11.038706298828124,-0.08562602709829807,0.0006460062859579921,-0.06248944512810558
1760555102934710300,11.048710205078125,-0.09487550148069858,-0.04710019848220982,-0.04480597746465355
1760555102944714200,11.05871435546875,0.04817804771363735,-0.03947207822394557,0.10147066196203232
1760555102954719200,11.06871923828125,0.027789924201369283,0.012821040125703438,0.1565395651679486
1760555102964723500,11.078723388671875,0.03774199389517307,-0.02142314281554427,0.15286447511808945
1760555102974728400,11.088728515625,0.027654315122961997,-0.030131103332922793,0.09253170570037327
1760555102984732400,11.098732421875,-0.05118482831418514,-0.04132766579564195,-0.04302311263587325
1760555102994736000,11.108736083984375,-0.032034137642383574,-0.09647387658804654,-0.11401829197383485
1760555103004741400,11.118741455078125,0.0942214214861393,-0.1208914108800236,-0.021648033046023918
1760555103014745300,11.128745361328125,0.061169046711921686,-0.13017219371614044,-0.03558198458338156
1760555103024750300,11.138750244140626,-0.038922728112339974,-0.12777082252968103,-0.002273671419871971
1760555103034754300,11.14875439453125,0.020307459491491316,-0.03704274360161507,0.06758292320906184
1760555103044758300,11.15875830078125,0.03182254071831703,0.005367422484396957,0.061863075124379246
1760555103054763300,11.16876318359375,-0.04417757990062236,-0.04708623388893902,0.03151998670832254
1760555103064767700,11.178767822265625,-0.0034983635097742076,-0.03177184486082988,0.0447999313163571
1760555103074772700,11.188772705078126,0.0692208357423544,-0.0434235557960812,0.06004422566676512
1760555103084777000,11.19877685546875,-0.040164252606034276,-0.03737969763813307,0.02384687653086148
1760555103094781000,11.208781005859375,0.0024660978525876997,-0.017648024174023884,0.04163794188778847
1760555103104786000,11.218785888671874,0.025360651227831838,-0.03578461731628049,0.04213115963167511
1760555103114790000,11.228789794921875,-0.02508300333023071,-0.04387305312925018,0.04714840327179991
1760555103124795000,11.238794921875,0.034009237107634545,-0.0646919144752901,0.05888635173537768
1760555103134798800,11.248798828125,0.054047232007980346,-0.1364823358441703,0.08360759994797408
1760555103144802800,11.258802734375,0.005862170031666755,-0.08319543895050883,0.01934067855225876
1760555103154807800,11.268807861328124,0.008855506628751755,-0.10902535165790468,0.0025765633565839378
1760555103164811800,11.278811767578125,0.029047230786085128,-0.06926825964723247,0.03704654071060941
1760555103174816800,11.288816650390626,0.004946224230527877,-0.07280796438097022,0.0628187684140168
1760555103184821000,11.298821044921874,0.027214170140028,-0.06388363029970787,0.0994743370456621
1760555103194825000,11.308824951171875,0.03482347609996796,-0.05889435237874276,0.10887708402732386
1760555103204830000,11.318829833984376,-0.01279752225279808,-0.02391377232118975,0.06762781266355887
1760555103214833700,11.328833740234375,0.024276363122463226,-0.011383125410228966,0.10312256648805923
1760555103224839000,11.3388388671875,-0.02183013901412487,-0.020643290150002575,0.01849585262541659
1760555103234843000,11.3488427734375,0.015106968238949775,-0.040236660255119204,-0.01637385550276376
1760555103244846800,11.358846923828125,0.015257190364599226,-0.02533901478475891,-0.023536394942738115
1760555103254851800,11.368851806640626,-0.021557167291641234,-0.04393810858894139,-0.04159962830455042
1760555103264855800,11.378855712890624,0.02063362270593643,-0.05445852078918833,0.02515159332072362
1760555103274860800,11.38886083984375,0.03605097206830978,-0.08252964111869222,0.026443487161630762
1760555103284865000,11.398864990234374,-0.01693009201288223,-0.032601817995123565,0.08907652374519966
1760555103294869000,11.408868896484375,0.005494505763053894,-0.03138833228582516,0.1575725249448791
1760555103304874000,11.4188740234375,0.030287586236000058,-0.057661011191504075,0.1554895263920538
1760555103314877700,11.428877685546874,0.01929214496910572,-0.02772828454147093,0.14593041980490087
1760555103324882700,11.438882568359375,0.044937458357214924,-0.13200520869642496,0.10238948470684699
1760555103334887000,11.448886962890626,0.05622048439383506,-0.12168078029258175,0.008797812491608784
1760555103344891000,11.458890869140625,-0.01892740330994129,-0.05606459514580201,-0.018222981367632746
1760555103354896000,11.468895751953125,-0.04123100505471229,-0.028554314436297863,-0.10120313359964639
1760555103364899800,11.47889990234375,-0.02194821243584156,0.05572248544355388,-0.017080989991966635
1760555103374904800,11.48890478515625,0.013652093255519866,-0.01392352604146581,0.038397790922783316
1760555103384908800,11.49890869140625,-0.0065437225550413125,-0.015640061335498466,0.016375855663605034
1760555103394913000,11.5089130859375,-0.03153846307992935,0.050237500994093715,-0.012533848081622272
1760555103404918000,11.51891796875,0.016963409760594367,-0.014839396494079846,-0.005115023192483931
1760555103414921700,11.528921630859376,-0.01640343779027462,-0.0268477319974103,-0.010164324204996227
1760555103424926700,11.5389267578125,0.026240941193699834,-0.03191414625821635,0.07279538802718744
1760555103434930700,11.5489306640625,0.007244564300775528,-0.03812832861492643,0.06243457313571125
1760555103444935000,11.558934814453124,0.0196457807123661,-0.06574620930119417,0.08735195584176107
1760555103454940000,11.56893994140625,0.03085924864411354,-0.05274249695180915,0.10046221557185053
1760555103464943900,11.57894384765625,0.0036170214533805846,-0.05841256934432312,0.030394626807048915
1760555103474948900,11.588948974609375,0.03369359528720379,-0.05381910864079836,-0.002010737034212798
1760555103484952800,11.598952880859375,0.015311550900340079,-0.06723392710830084,-0.048676900613866744
1760555103494957000,11.60895703125,0.023870704931020736,-0.07555904405424371,-0.08624443299127742
1760555103504962000,11.618962158203125,0.048310149660706514,-0.10387872775075957,-0.08045317277135328
1760555103514965800,11.6289658203125,-0.010460019215941429,-0.031299160731607115,-0.024579392056493087
1760555103524969700,11.6389697265625,0.024888357540965078,-0.04426870138333179,0.06349178143790923
1760555103534974700,11.648974609375,0.011152093133330345,-0.03463457049832214,0.08644137120232917
1760555103544979000,11.65897900390625,0.014607786545157432,-0.033689581265789456,0.10115651797894387
1760555103554984000,11.66898388671875,0.021056232032179833,-0.030805155253142584,0.12996843303865752
1760555103564988000,11.67898779296875,-0.001544306832551956,-0.02910648212607484,0.10623671645321883
1760555103574993000,11.688992919921875,0.011463643300533293,-0.04493588745463639,0.09008912572069093
1760555103584996900,11.698996826171875,0.045267128702998156,-0.12775633734660222,0.04561861815494485
1760555103595000800,11.709000732421876,0.07083353163599967,-0.18997324914364144,0.043323136762063945
1760555103605005800,11.719005859375,0.05259703319966793,-0.15466834620228037,-0.026515008894726633
1760555103615009800,11.729009765625,-0.03042436435818672,-0.033953282836428844,-0.07621064896392636
1760555103625014800,11.739014892578124,-0.008996960926055907,0.011282245151908137,-0.01081789274290204
1760555103635018800,11.749018798828125,-0.005512625941634178,-0.0026530809252057223,-0.00011722403834573924
1760555103645023000,11.75902294921875,-0.015818915900588034,0.027109321526065468,0.037893038004729894
1760555103655028000,11.769028076171875,0.008167524364590645,0.008672498761641327,0.08587133449572137
1760555103665032000,11.779031982421875,-0.03699380587637424,0.0035772260158206336,0.018341374449757857
1760555103675036000,11.789035888671876,0.023929157119989393,-0.013872802784515078,0.10610271481000817
1760555103685041000,11.799041015625,-0.0004319616764783859,-0.00376361086681718,0.07787462752023712
1760555103695044900,11.809044921875,-0.01000116953253746,0.004728277480776887,0.09410382298845797
1760555103705049900,11.8190498046875,0.03146247523427009,-0.015298457381682236,0.11835565445786342
1760555103715053800,11.8290537109375,0.005440729749202728,-0.046808969583828,0.027334855643939227
1760555103725058800,11.839058837890626,0.0340372941583395,-0.06480377735192887,0.002483907503914088
1760555103735062800,11.849062744140625,0.015362404304742812,-0.0715995156063931,-0.0062578182857483625
1760555103745067000,11.85906689453125,0.01614332554936409,-0.07219944056118838,-0.01866090699401684
1760555103755072000,11.869072021484374,0.02380991465449333,-0.06172881775284186,-0.04165123062762432
1760555103765076000,11.879075927734375,0.020530746853351593,-0.07791225611688568,0.0288325559889432
1760555103775080000,11.889079833984376,0.05361877746284008,-0.1291418916871771,0.08114963973606937
1760555103785085000,11.8990849609375,0.012491232782602309,-0.09089511747448704,0.022858687477419152
1760555103795089000,11.9090888671875,0.012955343163013458,-0.0731597278275527,0.035380790322320534
1760555103805094000,11.919093994140624,0.01700783342421055,-0.0545968104484491,0.07332682802276685
1760555103815097900,11.929097900390625,0.05112812969088554,-0.10225123614678158,0.06832775022699497
1760555103825102800,11.939102783203126,0.005782090532779693,-0.04676388376650866,0.12538646641010417
1760555103835106800,11.94910693359375,-0.016218728873133657,0.03664359506606124,0.09458454657695256
1760555103845110800,11.95911083984375,-0.01578033745586872,0.02243609185090754,0.07451033871890976
1760555103855115800,11.96911572265625,0.023571429723501205,-0.03401586549453204,0.057118017755448815
1760555103865120000,11.9791201171875,-0.00007014262676239014,-0.032722768360516054,0.014424630264285952
1760555103875123700,11.989123779296875,-0.018312486281991003,0.020007691093627364,-0.020443890553805976
1760555103885127700,11.999127685546876,-0.0072141691625118255,-0.03138659926975378,-0.042851016605133185
1760555103895132000,12.0091318359375,0.0040343700826168056,-0.02432806591023691,-0.020012769127544013
1760555103905137000,12.019136962890625,0.013793547552824019,-0.052013707753224295,-0.0015123955906368792
1760555103915140900,12.029140869140624,0.02054652894437313,-0.06557061527227051,0.04512366511169821
1760555103925144800,12.039144775390625,0.03043137862086296,-0.035261385743331625,0.1349363211117219
1760555103935149800,12.04914990234375,0.01159457620382309,-0.03772124793466646,0.12006717108348383
1760555103945154000,12.059154052734375,0.007095511218905448,-0.023109296671045013,0.06977773897275329
1760555103955159000,12.069158935546875,0.05094868147075176,-0.08129938693768345,0.08733579015824944
1760555103965162800,12.079162841796874,-0.014867898786067962,-0.06324298517545685,-0.03947217868864536
1760555103975166700,12.089166748046875,0.021660627666115758,-0.05650961266667582,-0.04037037877053953
1760555103985171700,12.099171630859376,0.035910686814785,-0.05218473063830752,-0.010181741130677983
1760555103995176000,12.109176025390624,0.026660043388605115,-0.07466494019215461,-0.016954093942977488
