time,seconds_elapsed,z,y,x
1760554736166498600,0.05749853515625,-1.0005645751953125,-0.024810791015625,0.0076904296875
1760554736176502500,0.06750244140625,-0.99853515625,-0.0242462158203125,0.00762939453125
1760554736186507500,0.077507568359375,-0.99932861328125,-0.0238189697265625,0.0065460205078125
1760554736196511500,0.087511474609375,-0.9989776611328125,-0.0253143310546875,0.0065765380859375
1760554736206516500,0.0975166015625,-0.99761962890625,-0.02520751953125,0.0044708251953125
1760554736216520400,0.1075205078125,-0.9989471435546875,-0.0244293212890625,0.0064697265625
1760554736226524700,0.117524658203125,-0.9989776611328125,-0.025177001953125,0.008941650390625
1760554736236529700,0.12752978515625,-0.99871826171875,-0.0256805419921875,0.011077880859375
1760554736246533600,0.13753369140625,-0.9979095458984375,-0.026824951171875,0.0089569091796875
1760554736256537600,0.14753759765625,-0.9982452392578125,-0.0274658203125,0.0108489990234375
1760554736266542600,0.15754248046875,-0.997802734375,-0.02838134765625,0.0118408203125
1760554736276546600,0.167546630859375,-0.9983367919921875,-0.0279388427734375,0.0094451904296875
1760554736286550500,0.177550537109375,-0.998077392578125,-0.025970458984375,0.0079193115234375
1760554736296555500,0.187555419921875,-0.99951171875,-0.024749755859375,0.00885009765625
1760554736306559500,0.1975595703125,-0.998779296875,-0.027435302734375,0.010589599609375
1760554736316563700,0.207563720703125,-0.99896240234375,-0.02545166015625,0.009368896484375
1760554736326568700,0.217568603515625,-0.9972991943359375,-0.0272674560546875,0.0113067626953125
1760554736336572700,0.22757275390625,-0.9978485107421875,-0.0283660888671875,0.0086212158203125
1760554736346576600,0.23757666015625,-0.9987945556640625,-0.0279388427734375,0.0108642578125
1760554736356581600,0.24758154296875,-0.998138427734375,-0.027191162109375,0.0128631591796875
1760554736366585600,0.257585693359375,-0.9971160888671875,-0.0265350341796875,0.0115814208984375
1760554736376589600,0.267589599609375,-0.997833251953125,-0.0263519287109375,0.010284423828125
1760554736386594600,0.277594482421875,-0.99713134765625,-0.02545166015625,0.0087890625
1760554736396598500,0.2875986328125,-0.99932861328125,-0.0261993408203125,0.0084075927734375
1760554736406603500,0.297603515625,-0.9998321533203125,-0.02593994140625,0.0066375732421875
1760554736416607700,0.307607666015625,-0.997528076171875,-0.0270843505859375,0.006927490234375
1760554736426611700,0.31761181640625,-0.9984893798828125,-0.0264434814453125,0.009765625
1760554736436616700,0.32761669921875,-0.9987640380859375,-0.0251617431640625,0.0109405517578125
1760554736446620400,0.337620361328125,-0.9979095458984375,-0.025726318359375,0.0097503662109375
1760554736456624400,0.347624267578125,-0.998260498046875,-0.0251312255859375,0.0092926025390625
1760554736466629600,0.357629638671875,-0.998931884765625,-0.0267791748046875,0.0081024169921875
1760554736476633600,0.367633544921875,-0.9979705810546875,-0.02642822265625,0.0086669921875
1760554736486637600,0.377637451171875,-0.997711181640625,-0.026397705078125,0.008941650390625
1760554736496645400,0.387645263671875,-0.9979400634765625,-0.026702880859375,0.009307861328125
1760554736506649600,0.397649658203125,-0.997833251953125,-0.02703857421875,0.0087890625
1760554736516653600,0.407653564453125,-0.9978790283203125,-0.027587890625,0.009490966796875
1760554736526658600,0.417658447265625,-0.99871826171875,-0.02667236328125,0.0089874267578125
1760554736536662500,0.42766259765625,-0.998443603515625,-0.0265960693359375,0.0092926025390625
1760554736546666500,0.43766650390625,-0.9968414306640625,-0.0269317626953125,0.0072021484375
1760554736556671500,0.44767138671875,-0.996185302734375,-0.0291748046875,0.00439453125
1760554736566675500,0.457675537109375,-0.9969940185546875,-0.03155517578125,0.001312255859375
1760554736576680400,0.467680419921875,-0.9982147216796875,-0.0289306640625,0.0019683837890625
1760554736586684400,0.477684326171875,-0.999359130859375,-0.025787353515625,0.0076751708984375
1760554736596688400,0.4876884765625,-1.0015411376953125,-0.02227783203125,0.011749267578125
1760554736606693600,0.497693603515625,-0.999847412109375,-0.0191650390625,0.0145721435546875
1760554736616697600,0.507697509765625,-0.998504638671875,-0.019866943359375,0.0139312744140625
1760554736626701600,0.51770166015625,-0.9991455078125,-0.0236663818359375,0.0102691650390625
1760554736636706600,0.52770654296875,-0.9989013671875,-0.027618408203125,0.00701904296875
1760554736646710300,0.537710205078125,-0.9978179931640625,-0.02789306640625,0.00811767578125
1760554736656714500,0.547714599609375,-0.9980621337890625,-0.0280303955078125,0.0089569091796875
1760554736666719500,0.557719482421875,-0.99951171875,-0.0258026123046875,0.01336669921875
1760554736676723500,0.567723388671875,-0.9986419677734375,-0.02593994140625,0.0149383544921875
1760554736686727400,0.5777275390625,-0.99951171875,-0.027923583984375,0.014373779296875
1760554736696732400,0.587732421875,-0.9969482421875,-0.0283966064453125,0.0102386474609375
1760554736706736600,0.597736572265625,-0.9957275390625,-0.0303497314453125,0.00689697265625
1760554736716740600,0.60774072265625,-0.9968719482421875,-0.031097412109375,0.006072998046875
1760554736726745600,0.61774560546875,-0.9977569580078125,-0.0278778076171875,0.0074310302734375
1760554736736749300,0.627749267578125,-0.9970550537109375,-0.02496337890625,0.0102691650390625
1760554736746754300,0.63775439453125,-0.9983367919921875,-0.0255889892578125,0.0111083984375
1760554736756758500,0.647758544921875,-0.99853515625,-0.023834228515625,0.011627197265625
1760554736766762500,0.657762451171875,-0.9991607666015625,-0.0250091552734375,0.0093994140625
1760554736776767500,0.667767578125,-0.998626708984375,-0.0250701904296875,0.0065155029296875
1760554736786771500,0.677771484375,-0.9988555908203125,-0.02471923828125,0.0059661865234375
1760554736796775700,0.687775634765625,-0.9991912841796875,-0.024993896484375,0.0061492919921875
1760554736806780700,0.69778076171875,-0.9979095458984375,-0.0240020751953125,0.0070648193359375
1760554736816784400,0.707784423828125,-0.9988861083984375,-0.024200439453125,0.0078887939453125
1760554736826788400,0.717788330078125,-0.9986572265625,-0.024322509765625,0.0109710693359375
1760554736836793300,0.72779345703125,-0.9972686767578125,-0.0268402099609375,0.0089111328125
1760554736846797600,0.737797607421875,-0.9966278076171875,-0.0280609130859375,0.0088043212890625
1760554736856801500,0.747801513671875,-0.9974212646484375,-0.0279388427734375,0.009002685546875
1760554736866806500,0.757806640625,-0.9975433349609375,-0.02801513671875,0.0106964111328125
1760554736876810500,0.767810546875,-0.99755859375,-0.0266571044921875,0.010009765625
1760554736886815500,0.7778154296875,-1.0006561279296875,-0.0259246826171875,0.0106201171875
1760554736896819700,0.78781982421875,-0.9982147216796875,-0.0265350341796875,0.01202392578125
1760554736906823400,0.797823486328125,-0.999053955078125,-0.027099609375,0.01025390625
1760554736916828400,0.807828369140625,-0.99859619140625,-0.02899169921875,0.0067138671875
1760554736926832400,0.817832275390625,-0.9974212646484375,-0.026336669921875,0.0071258544921875
1760554736936836600,0.827836669921875,-0.9975738525390625,-0.0245513916015625,0.0072021484375
1760554736946841600,0.837841552734375,-0.9993743896484375,-0.025054931640625,0.007781982421875
1760554736956845600,0.847845458984375,-0.99993896484375,-0.0249176025390625,0.0091094970703125
1760554736966849500,0.857849609375,-0.9994659423828125,-0.02447509765625,0.0070953369140625
1760554736976854500,0.8678544921875,-0.998504638671875,-0.026123046875,0.0074005126953125
1760554736986858500,0.8778583984375,-0.9991607666015625,-0.0258941650390625,0.0100250244140625
1760554736996862500,0.887862548828125,-0.998199462890625,-0.025604248046875,0.007293701171875
1760554737006867500,0.897867431640625,-0.9990692138671875,-0.0267791748046875,0.0092315673828125
1760554737016871400,0.907871337890625,-0.9991455078125,-0.0251922607421875,0.010467529296875
1760554737026875400,0.91787548828125,-0.9985198974609375,-0.0265655517578125,0.0112762451171875
1760554737036880400,0.92788037109375,-0.9990997314453125,-0.02728271484375,0.0080413818359375
1760554737046884600,0.937884521484375,-0.999420166015625,-0.02716064453125,0.0102386474609375
1760554737056889600,0.9478896484375,-0.9986419677734375,-0.0281829833984375,0.009429931640625
1760554737066893600,0.9578935546875,-0.998260498046875,-0.02728271484375,0.0086822509765625
1760554737076897300,0.967897216796875,-0.9978790283203125,-0.0264129638671875,0.00885009765625
1760554737086902300,0.97790234375,-0.9976654052734375,-0.0263824462890625,0.009002685546875
1760554737096906500,0.987906494140625,-0.9983978271484375,-0.025238037109375,0.0098114013671875
1760554737106910500,0.997910400390625,-0.99847412109375,-0.0254669189453125,0.0099945068359375
1760554737116915500,1.00791552734375,-0.99749755859375,-0.026092529296875,0.0112457275390625
1760554737126919400,1.01791943359375,-0.997955322265625,-0.0248870849609375,0.0095062255859375
1760554737136923600,1.027923583984375,-1.000030517578125,-0.0264739990234375,0.00830078125
1760554737146928600,1.0379287109375,-0.9997100830078125,-0.0247955322265625,0.0081787109375
1760554737156932600,1.0479326171875,-0.99884033203125,-0.0251922607421875,0.01092529296875
1760554737166936300,1.057936279296875,-0.9976806640625,-0.0258941650390625,0.007904052734375
1760554737176941300,1.06794140625,-0.9985504150390625,-0.0264434814453125,0.0070343017578125
1760554737186945500,1.077945556640625,-0.998779296875,-0.0266571044921875,0.00933837890625
1760554737196950500,1.087950439453125,-0.9988250732421875,-0.0280303955078125,0.009185791015625
1760554737206954500,1.09795458984375,-0.9972991943359375,-0.0277557373046875,0.0093536376953125
1760554737216958500,1.10795849609375,-0.998809814453125,-0.027130126953125,0.008758544921875
1760554737226963500,1.11796337890625,-0.99847412109375,-0.027496337890625,0.0106201171875
1760554737236967700,1.1279677734375,-0.99798583984375,-0.0267486572265625,0.0089874267578125
1760554737246971600,1.1379716796875,-0.9969940185546875,-0.0265655517578125,0.0087738037109375
1760554737256976600,1.1479765625,-0.9976043701171875,-0.027099609375,0.0094451904296875
1760554737266980400,1.15798046875,-0.9988861083984375,-0.0265350341796875,0.0089263916015625
1760554737276984600,1.167984619140625,-0.9983978271484375,-0.02655029296875,0.008453369140625
1760554737286989600,1.177989501953125,-0.9966888427734375,-0.0250244140625,0.0084228515625
1760554737296993500,1.18799365234375,-0.9998931884765625,-0.0256500244140625,0.0095367431640625
1760554737306997500,1.19799755859375,-0.9985809326171875,-0.023651123046875,0.00872802734375
1760554737317002500,1.20800244140625,-0.99884033203125,-0.0263824462890625,0.0081787109375
1760554737327006500,1.21800634765625,-0.99884033203125,-0.025634765625,0.0083770751953125
1760554737337010400,1.228010498046875,-0.9978179931640625,-0.0257110595703125,0.008636474609375
1760554737347015400,1.238015380859375,-0.9980621337890625,-0.0279541015625,0.0085906982421875
1760554737357019400,1.248019287109375,-0.9984283447265625,-0.0260772705078125,0.0086212158203125
1760554737367024400,1.2580244140625,-0.998382568359375,-0.02740478515625,0.0090179443359375
1760554737377028400,1.2680283203125,-0.99932861328125,-0.0263519287109375,0.010650634765625
1760554737387032600,1.278032470703125,-0.99853515625,-0.0265350341796875,0.0084686279296875
1760554737397037600,1.28803759765625,-0.998321533203125,-0.02764892578125,0.0083465576171875
1760554737407041500,1.29804150390625,-0.99822998046875,-0.0265045166015625,0.0107421875
1760554737417045500,1.30804541015625,-0.99932861328125,-0.0264739990234375,0.0110321044921875
1760554737427050500,1.318050537109375,-0.9997711181640625,-0.0279083251953125,0.0099029541015625
1760554737437054500,1.328054443359375,-0.9992218017578125,-0.0259552001953125,0.00732421875
1760554737447058400,1.338058349609375,-0.9974822998046875,-0.0250701904296875,0.0098876953125
1760554737457063400,1.3480634765625,-1.0002593994140625,-0.024993896484375,0.009033203125
1760554737467067400,1.3580673828125,-0.9987640380859375,-0.0261993408203125,0.0053863525390625
1760554737477071600,1.368071533203125,-0.9979400634765625,-0.025604248046875,0.008209228515625
1760554737487076600,1.37807666015625,-0.9994659423828125,-0.0261383056640625,0.009185791015625
1760554737497077200,1.3880771484375,-0.998443603515625,-0.025146484375,0.0091094970703125
1760554737507081200,1.398081298828125,-0.99871826171875,-0.02655029296875,0.0090789794921875
1760554737517086200,1.408086181640625,-0.9990692138671875,-0.0257110595703125,0.00933837890625
1760554737527090400,1.41809033203125,-0.9998931884765625,-0.02716064453125,0.0100250244140625
1760554737537095400,1.428095458984375,-0.99774169921875,-0.0264892578125,0.01104736328125
1760554737547099100,1.43809912109375,-0.997589111328125,-0.0259857177734375,0.00909423828125
1760554737557103000,1.44810302734375,-0.9977264404296875,-0.0278472900390625,0.0083160400390625
1760554737567108000,1.458108154296875,-1.0001068115234375,-0.027069091796875,0.0107574462890625
1760554737577112300,1.4681123046875,-0.99993896484375,-0.0261383056640625,0.009735107421875
1760554737587116300,1.4781162109375,-0.9982757568359375,-0.02520751953125,0.008331298828125
1760554737597121300,1.488121337890625,-0.9999542236328125,-0.0251617431640625,0.00946044921875
1760554737607125200,1.498125244140625,-0.9990081787109375,-0.0254364013671875,0.0087738037109375
1760554737617129000,1.50812890625,-0.9995880126953125,-0.026824951171875,0.0088043212890625
1760554737627134200,1.51813427734375,-0.9982452392578125,-0.026611328125,0.00982666015625
1760554737637138200,1.52813818359375,-0.9991607666015625,-0.026214599609375,0.008392333984375
1760554737647142100,1.53814208984375,-0.9978179931640625,-0.0263214111328125,0.0101776123046875
1760554737657147100,1.548147216796875,-0.9972686767578125,-0.02581787109375,0.008880615234375
1760554737667151000,1.558151123046875,-0.9995269775390625,-0.026336669921875,0.0096435546875
1760554737677156000,1.568156005859375,-0.9994049072265625,-0.0262908935546875,0.009735107421875
1760554737687160300,1.578160400390625,-0.998626708984375,-0.025604248046875,0.0092926025390625
1760554737697164300,1.588164306640625,-0.9994659423828125,-0.0258026123046875,0.009368896484375
1760554737707169300,1.598169189453125,-0.998992919921875,-0.027130126953125,0.0105133056640625
1760554737717173000,1.608173095703125,-0.998931884765625,-0.024993896484375,0.00848388671875
1760554737727177200,1.61817724609375,-0.9992218017578125,-0.025909423828125,0.0091552734375
1760554737737182200,1.62818212890625,-0.99755859375,-0.0272216796875,0.0100250244140625
1760554737747186200,1.638186279296875,-0.9989776611328125,-0.0261993408203125,0.0090789794921875
1760554737757190100,1.648190185546875,-0.9988250732421875,-0.025970458984375,0.008453369140625
1760554737767195100,1.658195068359375,-0.9983062744140625,-0.026397705078125,0.008697509765625
1760554737777199400,1.668199462890625,-0.9980926513671875,-0.0274658203125,0.0083160400390625
1760554737787203300,1.678203369140625,-0.99835205078125,-0.0266571044921875,0.010040283203125
1760554737797208300,1.688208251953125,-0.9978485107421875,-0.0260009765625,0.009765625
1760554737807212000,1.6982119140625,-0.997772216796875,-0.026123046875,0.00811767578125
1760554737817216300,1.70821630859375,-0.997650146484375,-0.0262298583984375,0.010101318359375
1760554737827221200,1.71822119140625,-1.0006561279296875,-0.026611328125,0.0086517333984375
1760554737837225200,1.72822509765625,-0.99725341796875,-0.0268402099609375,0.0095672607421875
1760554737847230200,1.738230224609375,-0.997802734375,-0.0250701904296875,0.0084686279296875
1760554737857234200,1.748234130859375,-0.99725341796875,-0.025604248046875,0.0095367431640625
1760554737867238400,1.75823828125,-0.998199462890625,-0.02655029296875,0.0093536376953125
1760554737877243400,1.768243408203125,-0.998626708984375,-0.0263671875,0.008392333984375
1760554737887247000,1.7782470703125,-0.9986724853515625,-0.0274658203125,0.0085601806640625
1760554737897251000,1.7882509765625,-0.9961090087890625,-0.0260162353515625,0.009735107421875
1760554737907256000,1.798256103515625,-0.996673583984375,-0.02685546875,0.0081329345703125
1760554737917260300,1.80826025390625,-0.9983367919921875,-0.0273895263671875,0.0088958740234375
1760554737927264300,1.81826416015625,-0.9977569580078125,-0.0267791748046875,0.008270263671875
1760554737937269200,1.828269287109375,-0.999420166015625,-0.02703857421875,0.0083770751953125
1760554737947273200,1.838273193359375,-0.9987640380859375,-0.0269012451171875,0.0089111328125
1760554737957277200,1.848277099609375,-0.9991455078125,-0.026031494140625,0.009521484375
1760554737967282200,1.8582822265625,-0.9980926513671875,-0.025299072265625,0.009552001953125
1760554737977286100,1.8682861328125,-0.9991607666015625,-0.024383544921875,0.0088653564453125
1760554737987290000,1.8782900390625,-0.9990692138671875,-0.0266876220703125,0.0102081298828125
1760554737997295000,1.888295166015625,-0.9994354248046875,-0.0265655517578125,0.00897216796875
1760554738007299000,1.898299072265625,-0.999542236328125,-0.0277557373046875,0.0081787109375
1760554738017304000,1.908303955078125,-0.999237060546875,-0.0269927978515625,0.0089874267578125
1760554738027308300,1.918308349609375,-0.998779296875,-0.02618408203125,0.0093841552734375
1760554738037312300,1.928312255859375,-0.9995269775390625,-0.026153564453125,0.0089111328125
1760554738047317200,1.938317138671875,-0.9987945556640625,-0.026397705078125,0.0087127685546875
1760554738057321200,1.9483212890625,-0.9973907470703125,-0.0269012451171875,0.0091400146484375
1760554738067325200,1.9583251953125,-0.9980010986328125,-0.0257110595703125,0.0081634521484375
1760554738077330200,1.968330078125,-0.99835205078125,-0.0267333984375,0.0079803466796875
1760554738087334100,1.978334228515625,-0.997894287109375,-0.026824951171875,0.0095367431640625
1760554738097338000,1.988338134765625,-0.9988555908203125,-0.02667236328125,0.008697509765625
1760554738107343000,1.998343017578125,-0.99884033203125,-0.026763916015625,0.0081329345703125
1760554738117347300,2.008347412109375,-0.9985198974609375,-0.025848388671875,0.0085601806640625
1760554738127352300,2.018352294921875,-0.998077392578125,-0.02703857421875,0.0078582763671875
1760554738137356300,2.028356201171875,-0.998809814453125,-0.02569580078125,0.010162353515625
1760554738147360000,2.038360107421875,-0.997589111328125,-0.0268096923828125,0.009979248046875
1760554738157365200,2.048365234375,-0.9997100830078125,-0.0274505615234375,0.008636474609375
1760554738167369200,2.058369140625,-0.9977264404296875,-0.02783203125,0.00946044921875
1760554738177373200,2.068373291015625,-0.998199462890625,-0.0262298583984375,0.0089111328125
1760554738187378200,2.078378173828125,-0.9989471435546875,-0.026336669921875,0.0108642578125
1760554738197382100,2.088382080078125,-0.9990234375,-0.0253753662109375,0.0093231201171875
1760554738207386400,2.098386474609375,-0.998138427734375,-0.0272979736328125,0.0097808837890625
1760554738217391400,2.108391357421875,-0.9983978271484375,-0.0271148681640625,0.00872802734375
1760554738227395300,2.118395263671875,-0.9988555908203125,-0.027374267578125,0.00830078125
1760554738237399000,2.12839892578125,-0.9969635009765625,-0.02642822265625,0.009490966796875
1760554738247404000,2.138404052734375,-0.998443603515625,-0.0264129638671875,0.0091400146484375
1760554738257408300,2.148408203125,-0.9994659423828125,-0.026519775390625,0.0093841552734375
1760554738267413200,2.158413330078125,-0.9970855712890625,-0.024993896484375,0.0091552734375
1760554738277417200,2.168417236328125,-0.99774169921875,-0.026611328125,0.009033203125
1760554738287421200,2.178421142578125,-0.9990997314453125,-0.02618408203125,0.0100250244140625
1760554738297426200,2.18842626953125,-0.997802734375,-0.0262603759765625,0.0087738037109375
1760554738307430100,2.19843017578125,-0.998077392578125,-0.0268707275390625,0.010650634765625
1760554738317434400,2.208434326171875,-0.998870849609375,-0.0255584716796875,0.01007080078125
1760554738327439400,2.218439453125,-0.9975738525390625,-0.0270538330078125,0.01055908203125
1760554738337443000,2.228443115234375,-0.99822998046875,-0.0263824462890625,0.00732421875
1760554738347447000,2.238447021484375,-0.9992523193359375,-0.0257415771484375,0.00970458984375
1760554738357452000,2.2484521484375,-0.998626708984375,-0.025360107421875,0.008941650390625
1760554738367456300,2.258456298828125,-0.998626708984375,-0.0272369384765625,0.007965087890625
1760554738377460200,2.268460205078125,-0.9978485107421875,-0.0267333984375,0.0077362060546875
1760554738387465200,2.27846533203125,-0.998016357421875,-0.025360107421875,0.0103912353515625
1760554738397469200,2.28846923828125,-0.9997711181640625,-0.02606201171875,0.0092010498046875
1760554738407474200,2.29847412109375,-0.9981842041015625,-0.0257415771484375,0.0091552734375
1760554738417478400,2.308478515625,-0.9976043701171875,-0.0258026123046875,0.0082244873046875
1760554738427482000,2.318482177734375,-0.998748779296875,-0.0275115966796875,0.008697509765625
1760554738437487000,2.328487060546875,-0.9993133544921875,-0.028289794921875,0.009552001953125
1760554738447491000,2.338490966796875,-0.99835205078125,-0.026947021484375,0.0095367431640625
1760554738457495300,2.348495361328125,-0.998565673828125,-0.026580810546875,0.009613037109375
1760554738467500300,2.358500244140625,-0.9993896484375,-0.0269317626953125,0.0093841552734375
1760554738477504300,2.368504150390625,-0.99969482421875,-0.0269622802734375,0.0103302001953125
1760554738487508200,2.37850830078125,-0.99957275390625,-0.0273284912109375,0.01025390625
1760554738497513000,2.388512939453125,-0.997589111328125,-0.0270843505859375,0.0100555419921875
1760554738507517200,2.39851708984375,-0.9995574951171875,-0.0264892578125,0.009674072265625
1760554738517521000,2.40852099609375,-0.999481201171875,-0.0267486572265625,0.0093841552734375
1760554738527526000,2.41852587890625,-0.996978759765625,-0.0263824462890625,0.009429931640625
1760554738537529900,2.42852978515625,-0.99713134765625,-0.026702880859375,0.008697509765625
1760554738547534800,2.438534912109375,-0.9971466064453125,-0.02557373046875,0.0074310302734375
1760554738557539000,2.4485390625,-0.99896240234375,-0.0259246826171875,0.0082855224609375
1760554738567543000,2.45854296875,-0.9986419677734375,-0.0248870849609375,0.00872802734375
1760554738577548000,2.468548095703125,-0.9976043701171875,-0.025115966796875,0.008056640625
1760554738587552000,2.478552001953125,-0.9984893798828125,-0.0264739990234375,0.0101318359375
1760554738597556200,2.48855615234375,-0.9986419677734375,-0.02557373046875,0.0085296630859375
1760554738607561200,2.498561279296875,-0.9972381591796875,-0.0277862548828125,0.0078582763671875
1760554738617565000,2.50856494140625,-0.9970245361328125,-0.0265655517578125,0.0091552734375
1760554738627569000,2.51856884765625,-0.998138427734375,-0.0263519287109375,0.0079193115234375
1760554738637574000,2.528573974609375,-0.999114990234375,-0.0267791748046875,0.0089569091796875
1760554738647578000,2.538578125,-0.9989013671875,-0.0264434814453125,0.008087158203125
1760554738657582000,2.54858203125,-0.99871826171875,-0.0249176025390625,0.0087738037109375
1760554738667587000,2.558587158203125,-0.9985198974609375,-0.025787353515625,0.009063720703125
1760554738677591000,2.568591064453125,-0.99957275390625,-0.0258331298828125,0.009368896484375
1760554738687596000,2.578595947265625,-0.9976806640625,-0.02545166015625,0.008331298828125
1760554738697600000,2.58860009765625,-0.99853515625,-0.026336669921875,0.0091400146484375
1760554738707604000,2.59860400390625,-0.9980621337890625,-0.0262908935546875,0.0090484619140625
1760554738717609000,2.60860888671875,-0.999176025390625,-0.0252532958984375,0.0082855224609375
1760554738727613000,2.618613037109375,-0.9983978271484375,-0.0264892578125,0.00933837890625
1760554738737617000,2.628616943359375,-0.9977264404296875,-0.0258026123046875,0.009735107421875
1760554738747622000,2.638621826171875,-0.9977874755859375,-0.027252197265625,0.0099334716796875
1760554738757626000,2.648626220703125,-0.9982147216796875,-0.025177001953125,0.00933837890625
1760554738767630000,2.658630126953125,-0.998199462890625,-0.025787353515625,0.00897216796875
1760554738777635000,2.668635009765625,-0.9990997314453125,-0.026092529296875,0.0103302001953125
1760554738787638800,2.678638671875,-0.99871826171875,-0.0260162353515625,0.0103302001953125
1760554738797643800,2.688643798828125,-0.9997100830078125,-0.0267486572265625,0.010223388671875
1760554738807648000,2.69864794921875,-0.998321533203125,-0.0262298583984375,0.0094451904296875
1760554738817652000,2.70865185546875,-0.9978179931640625,-0.0264434814453125,0.00830078125
1760554738827657000,2.718656982421875,-0.9969635009765625,-0.0272369384765625,0.01019287109375
1760554738837661000,2.728660888671875,-0.9973602294921875,-0.027252197265625,0.00927734375
1760554738847665200,2.7386650390625,-0.9976654052734375,-0.0263519287109375,0.0099945068359375
1760554738857670100,2.748670166015625,-0.998504638671875,-0.0272064208984375,0.0096588134765625
1760554738867674000,2.758674072265625,-0.9971923828125,-0.0260162353515625,0.0093994140625
1760554738877677800,2.768677734375,-0.998443603515625,-0.025726318359375,0.0088043212890625
1760554738887682800,2.778682861328125,-0.9977874755859375,-0.025390625,0.0089874267578125
1760554738897687000,2.78868701171875,-0.9977264404296875,-0.025726318359375,0.008544921875
1760554738907691000,2.79869091796875,-0.9991912841796875,-0.0253753662109375,0.0097503662109375
1760554738917696000,2.808696044921875,-0.998809814453125,-0.02520751953125,0.0107879638671875
1760554738927700000,2.818699951171875,-0.997314453125,-0.0252532958984375,0.008819580078125
1760554738937705000,2.828705078125,-0.997528076171875,-0.0263824462890625,0.010528564453125
1760554738947709200,2.838709228515625,-0.9990692138671875,-0.0257415771484375,0.00897216796875
1760554738957713000,2.848712890625,-0.998779296875,-0.0264739990234375,0.0086669921875
1760554738967718000,2.8587177734375,-0.9988861083984375,-0.026214599609375,0.0108795166015625
1760554738977721900,2.868721923828125,-0.99853515625,-0.0263824462890625,0.0102691650390625
1760554738987726000,2.87872607421875,-0.9976348876953125,-0.02685546875,0.0080108642578125
1760554738997731000,2.88873095703125,-0.997344970703125,-0.02716064453125,0.008697509765625
1760554739007735000,2.898735107421875,-0.9982452392578125,-0.0263824462890625,0.00970458984375
1760554739017739000,2.908739013671875,-0.9972991943359375,-0.026397705078125,0.0086212158203125
1760554739027744000,2.918743896484375,-0.9986419677734375,-0.026336669921875,0.00799560546875
1760554739037748200,2.928748291015625,-0.9994354248046875,-0.0264892578125,0.008453369140625
1760554739047752000,2.938751953125,-0.9983673095703125,-0.0255279541015625,0.00823974609375
1760554739057757000,2.9487568359375,-0.9974365234375,-0.02630615234375,0.0098876953125
1760554739067761000,2.958760986328125,-0.9983062744140625,-0.026947021484375,0.0091094970703125
1760554739077766000,2.968765869140625,-0.9988861083984375,-0.024871826171875,0.00946044921875
1760554739087770000,2.97877001953125,-0.99871826171875,-0.025299072265625,0.0084991455078125
1760554739097774000,2.988774169921875,-0.9972991943359375,-0.026824951171875,0.00921630859375
1760554739107779000,2.998779052734375,-0.9990234375,-0.0266876220703125,0.00927734375
1760554739117783000,3.008782958984375,-0.9981689453125,-0.02655029296875,0.0098419189453125
1760554739127787000,3.018787109375,-0.9994049072265625,-0.0274200439453125,0.0089569091796875
1760554739137792000,3.0287919921875,-0.99853515625,-0.026885986328125,0.008941650390625
1760554739147796000,3.0387958984375,-0.998687744140625,-0.02630615234375,0.00982666015625
1760554739157800000,3.048800048828125,-0.9984283447265625,-0.02740478515625,0.00860595703125
1760554739167805000,3.058804931640625,-0.997406005859375,-0.0255126953125,0.0080413818359375
1760554739177809000,3.068808837890625,-0.9993438720703125,-0.02642822265625,0.009429931640625
1760554739187813000,3.078813232421875,-1.0004119873046875,-0.0259552001953125,0.009521484375
1760554739197818000,3.088818115234375,-0.998291015625,-0.0266265869140625,0.0098419189453125
1760554739207822000,3.098822021484375,-0.99798583984375,-0.0262451171875,0.0110626220703125
1760554739217827000,3.1088271484375,-0.9989166259765625,-0.026031494140625,0.009033203125
1760554739227830800,3.118830810546875,-0.99786376953125,-0.0251007080078125,0.0086517333984375
1760554739237835000,3.1288349609375,-0.99810791015625,-0.026763916015625,0.0091094970703125
1760554739247840000,3.138840087890625,-0.99920654296875,-0.0270538330078125,0.010467529296875
1760554739257844000,3.148843994140625,-0.998748779296875,-0.0264129638671875,0.0087890625
1760554739267848000,3.158847900390625,-0.9987640380859375,-0.0260162353515625,0.00909423828125
1760554739277853000,3.16885302734375,-0.99755859375,-0.026031494140625,0.0096588134765625
1760554739287857200,3.178857177734375,-0.9979400634765625,-0.02545166015625,0.010040283203125
1760554739297861000,3.188861083984375,-0.9986419677734375,-0.0257110595703125,0.0095367431640625
1760554739307866000,3.1988662109375,-0.9970550537109375,-0.0252838134765625,0.0097808837890625
1760554739317869800,3.208869873046875,-0.99761962890625,-0.02587890625,0.008697509765625
1760554739327874000,3.2188740234375,-0.9969024658203125,-0.02716064453125,0.0103607177734375
1760554739337879000,3.228879150390625,-0.99908447265625,-0.025726318359375,0.010345458984375
1760554739347883000,3.238883056640625,-0.9985504150390625,-0.026763916015625,0.0107574462890625
1760554739357888000,3.248887939453125,-0.9969940185546875,-0.026397705078125,0.008544921875
1760554739367892000,3.25889208984375,-0.998443603515625,-0.025177001953125,0.0095977783203125
1760554739377896200,3.268896240234375,-0.9978790283203125,-0.025848388671875,0.0101776123046875
1760554739387901200,3.278901123046875,-0.9989166259765625,-0.025665283203125,0.0095672607421875
1760554739397905200,3.2889052734375,-0.9980316162109375,-0.026458740234375,0.008392333984375
1760554739407908900,3.298908935546875,-0.997344970703125,-0.026824951171875,0.00921630859375
1760554739417913900,3.308913818359375,-0.9996337890625,-0.026824951171875,0.00933837890625
1760554739427918000,3.31891796875,-0.9969024658203125,-0.026702880859375,0.009429931640625
1760554739437922000,3.328922119140625,-0.9978485107421875,-0.0264892578125,0.0079193115234375
1760554739447927000,3.338927001953125,-0.99835205078125,-0.0258941650390625,0.0093536376953125
1760554739457931000,3.348930908203125,-0.9991302490234375,-0.02520751953125,0.00994873046875
1760554739467935000,3.35893505859375,-0.9981689453125,-0.02532958984375,0.00994873046875
1760554739477940000,3.36893994140625,-0.999542236328125,-0.0263214111328125,0.0087890625
1760554739487944000,3.37894384765625,-0.9987030029296875,-0.02667236328125,0.0107879638671875
1760554739497949400,3.388949462890625,-0.9971771240234375,-0.02606201171875,0.0092620849609375
1760554739507953400,3.398953369140625,-0.997955322265625,-0.0269012451171875,0.00970458984375
1760554739517957400,3.408957275390625,-0.9999237060546875,-0.0273284912109375,0.0093841552734375
1760554739527962400,3.41896240234375,-0.997955322265625,-0.0263824462890625,0.008636474609375
1760554739537966600,3.428966552734375,-1.000274658203125,-0.0261688232421875,0.0089111328125
1760554739547970600,3.438970458984375,-0.997344970703125,-0.027008056640625,0.009307861328125
1760554739557975600,3.4489755859375,-0.9978485107421875,-0.0272064208984375,0.009033203125
1760554739567979300,3.458979248046875,-0.9989013671875,-0.026397705078125,0.0096282958984375
1760554739577983500,3.4689833984375,-0.998382568359375,-0.0276336669921875,0.0095977783203125
1760554739587988500,3.478988525390625,-1.00006103515625,-0.026611328125,0.0106658935546875
1760554739597992400,3.488992431640625,-0.998992919921875,-0.025909423828125,0.0103912353515625
1760554739607997400,3.49899755859375,-0.9991607666015625,-0.0265960693359375,0.010040283203125
1760554739618001400,3.50900146484375,-0.99908447265625,-0.0250701904296875,0.009124755859375
1760554739628005600,3.519005615234375,-0.99761962890625,-0.0263824462890625,0.009918212890625
1760554739638010600,3.5290107421875,-0.998443603515625,-0.0269775390625,0.0097808837890625
1760554739648014600,3.5390146484375,-0.9987335205078125,-0.026397705078125,0.0099334716796875
1760554739658018300,3.549018310546875,-0.99853515625,-0.027069091796875,0.009918212890625
1760554739668023300,3.559023193359375,-0.99798583984375,-0.0260467529296875,0.008392333984375
1760554739678027300,3.56902734375,-0.9969940185546875,-0.02667236328125,0.008392333984375
1760554739688031500,3.579031494140625,-0.997894287109375,-0.0253753662109375,0.009246826171875
1760554739698036500,3.589036376953125,-0.998779296875,-0.0262908935546875,0.010101318359375
1760554739708040400,3.59904052734375,-0.9982757568359375,-0.0264892578125,0.0088958740234375
1760554739718044400,3.60904443359375,-0.997039794921875,-0.026458740234375,0.0094146728515625
1760554739728049400,3.61904931640625,-0.9966888427734375,-0.027252197265625,0.010406494140625
1760554739738053600,3.6290537109375,-0.9969024658203125,-0.027008056640625,0.0098724365234375
1760554739748058600,3.63905859375,-0.9975128173828125,-0.027008056640625,0.0093994140625
1760554739758062300,3.649062255859375,-0.998443603515625,-0.0257415771484375,0.0072784423828125
1760554739768066300,3.65906640625,-0.9990386962890625,-0.0254669189453125,0.008880615234375
1760554739778071300,3.6690712890625,-0.9993743896484375,-0.02691650390625,0.00897216796875
1760554739788075500,3.679075439453125,-0.9992828369140625,-0.02508544921875,0.008697509765625
1760554739798079500,3.68907958984375,-0.9976654052734375,-0.026031494140625,0.0095672607421875
1760554739808084500,3.69908447265625,-0.997711181640625,-0.0263671875,0.00909423828125
1760554739818088400,3.70908837890625,-0.9981536865234375,-0.026580810546875,0.0087432861328125
1760554739828092400,3.719092529296875,-0.99725341796875,-0.025970458984375,0.0077056884765625
1760554739838097700,3.72909765625,-0.9977874755859375,-0.0254974365234375,0.0097808837890625
1760554739848101400,3.739101318359375,-0.9983978271484375,-0.0256805419921875,0.0092010498046875
1760554739858106400,3.7491064453125,-0.9972381591796875,-0.0264739990234375,0.009002685546875
1760554739868110300,3.7591103515625,-0.997802734375,-0.025482177734375,0.0086669921875
1760554739878114600,3.769114501953125,-0.997467041015625,-0.0272216796875,0.0094451904296875
1760554739888119600,3.77911962890625,-0.9983367919921875,-0.0249176025390625,0.009552001953125
1760554739898123500,3.78912353515625,-0.9983367919921875,-0.024749755859375,0.009613037109375
1760554739908127500,3.79912744140625,-0.9972991943359375,-0.026763916015625,0.0115966796875
1760554739918132500,3.809132568359375,-0.9976654052734375,-0.026123046875,0.009368896484375
1760554739928136400,3.819136474609375,-0.9984130859375,-0.0255279541015625,0.0085296630859375
1760554739938140400,3.829140380859375,-0.9976654052734375,-0.0265960693359375,0.008209228515625
1760554739948145400,3.8391455078125,-0.9980316162109375,-0.0266571044921875,0.008941650390625
1760554739958149400,3.8491494140625,-0.996826171875,-0.0267486572265625,0.0087432861328125
1760554739968153600,3.859153564453125,-0.9967498779296875,-0.02740478515625,0.0097198486328125
1760554739978158600,3.86915869140625,-0.998809814453125,-0.027313232421875,0.0092010498046875
1760554739988162600,3.87916259765625,-0.9992218017578125,-0.0260772705078125,0.0086212158203125
1760554739998167600,3.88916748046875,-0.997589111328125,-0.0268707275390625,0.009246826171875
1760554740008171500,3.899171630859375,-0.99932861328125,-0.0262908935546875,0.0099029541015625
1760554740018175500,3.909175537109375,-0.997283935546875,-0.0242462158203125,0.0093994140625
1760554740028180500,3.919180419921875,-0.997344970703125,-0.0268096923828125,0.0105438232421875
1760554740038184400,3.929184326171875,-0.9981536865234375,-0.0286407470703125,0.008148193359375
1760554740048188400,3.9391884765625,-0.997955322265625,-0.026885986328125,0.0098114013671875
1760554740058193400,3.949193359375,-0.9983673095703125,-0.026123046875,0.008819580078125
1760554740068197400,3.959197265625,-0.99725341796875,-0.027313232421875,0.009002685546875
1760554740078201600,3.96920166015625,-0.9984588623046875,-0.02642822265625,0.0089874267578125
1760554740088206600,3.97920654296875,-0.998565673828125,-0.0253448486328125,0.0082244873046875
1760554740098209300,3.989209228515625,-0.998046875,-0.026275634765625,0.00823974609375
1760554740108213500,3.999213623046875,-0.99761962890625,-0.027374267578125,0.0098724365234375
1760554740118217500,4.009217529296875,-1.000030517578125,-0.026580810546875,0.0087738037109375
1760554740128222500,4.019222412109375,-0.9991607666015625,-0.02642822265625,0.007171630859375
1760554740138226400,4.029226318359375,-0.9981689453125,-0.0257415771484375,0.0097198486328125
1760554740148230700,4.039230712890625,-0.998077392578125,-0.0257110595703125,0.00946044921875
1760554740158235600,4.049235595703125,-0.9974517822265625,-0.0278778076171875,0.0084686279296875
1760554740168239400,4.0592392578125,-0.9977569580078125,-0.026641845703125,0.0084686279296875
1760554740178243300,4.069243408203125,-0.9980316162109375,-0.02752685546875,0.0085601806640625
1760554740188248300,4.079248291015625,-0.9989166259765625,-0.0258636474609375,0.008392333984375
1760554740198252500,4.08925244140625,-0.9986114501953125,-0.0260772705078125,0.009918212890625
1760554740208256500,4.099256591796875,-0.9966888427734375,-0.025482177734375,0.0086669921875
1760554740218261500,4.109261474609375,-0.9970550537109375,-0.02685546875,0.0084075927734375
1760554740228265500,4.119265380859375,-0.997589111328125,-0.0255889892578125,0.0096893310546875
1760554740238270500,4.1292705078125,-0.9980010986328125,-0.0251312255859375,0.0087432861328125
1760554740248274700,4.139274658203125,-0.99798583984375,-0.0268707275390625,0.007293701171875
1760554740258278400,4.1492783203125,-0.9979095458984375,-0.02691650390625,0.009429931640625
1760554740268283400,4.159283447265625,-0.9979705810546875,-0.0264434814453125,0.0095062255859375
1760554740278287400,4.169287353515625,-0.9983673095703125,-0.0267791748046875,0.008087158203125
1760554740288291300,4.179291259765625,-0.997406005859375,-0.0253753662109375,0.0089263916015625
1760554740298296600,4.189296630859375,-0.9978790283203125,-0.0264892578125,0.0091094970703125
1760554740308300500,4.199300537109375,-0.9983367919921875,-0.0270843505859375,0.0097198486328125
1760554740318304500,4.209304443359375,-0.9982147216796875,-0.0280609130859375,0.00958251953125
1760554740328309500,4.2193095703125,-0.9979248046875,-0.0270233154296875,0.010101318359375
1760554740338313200,4.229313232421875,-0.9988250732421875,-0.0267791748046875,0.0093231201171875
1760554740348317400,4.2393173828125,-0.99774169921875,-0.0257110595703125,0.009002685546875
1760554740358322400,4.249322509765625,-0.997711181640625,-0.02484130859375,0.0100555419921875
1760554740368326400,4.259326416015625,-0.998016357421875,-0.026702880859375,0.00848388671875
1760554740378331400,4.269331298828125,-0.998046875,-0.0270843505859375,0.0087738037109375
1760554740388335400,4.27933544921875,-0.999664306640625,-0.026519775390625,0.008026123046875
1760554740398339600,4.289339599609375,-1.0001220703125,-0.027862548828125,0.010162353515625
1760554740408344600,4.299344482421875,-0.9977569580078125,-0.0265350341796875,0.0094146728515625
1760554740418348500,4.3093486328125,-0.9992218017578125,-0.02496337890625,0.0101165771484375
1760554740428352300,4.319352294921875,-0.999481201171875,-0.026397705078125,0.008941650390625
1760554740438357200,4.329357177734375,-0.998016357421875,-0.0272369384765625,0.0090179443359375
1760554740448361500,4.339361572265625,-0.9988250732421875,-0.026947021484375,0.0106048583984375
1760554740458365400,4.349365478515625,-0.997802734375,-0.0263671875,0.0095062255859375
1760554740468371500,4.359371337890625,-0.9966583251953125,-0.0257720947265625,0.009429931640625
1760554740478375400,4.36937548828125,-0.9977569580078125,-0.0267181396484375,0.0081329345703125
1760554740488380400,4.37938037109375,-0.99951171875,-0.0256500244140625,0.009796142578125
1760554740498384100,4.389384033203125,-0.997711181640625,-0.0262603759765625,0.010528564453125
1760554740508388400,4.399388427734375,-0.997039794921875,-0.026702880859375,0.0095367431640625
1760554740518393300,4.409393310546875,-0.9981689453125,-0.027923583984375,0.0098419189453125
1760554740528397300,4.419397216796875,-0.9988250732421875,-0.02728271484375,0.009063720703125
1760554740538402300,4.42940234375,-0.99822998046875,-0.027923583984375,0.0079193115234375
1760554740548406300,4.43940625,-0.99627685546875,-0.0277099609375,0.009490966796875
1760554740558410500,4.449410400390625,-0.99920654296875,-0.02606201171875,0.0084075927734375
1760554740568415500,4.45941552734375,-0.99835205078125,-0.025726318359375,0.0076141357421875
1760554740578419500,4.46941943359375,-0.9979248046875,-0.025970458984375,0.0094757080078125
1760554740588423200,4.479423095703125,-0.9987640380859375,-0.0270843505859375,0.0099639892578125
1760554740598428200,4.48942822265625,-0.99761962890625,-0.0266876220703125,0.0084381103515625
1760554740608432400,4.499432373046875,-0.99749755859375,-0.02764892578125,0.010589599609375
1760554740618436400,4.509436279296875,-0.999237060546875,-0.026702880859375,0.009002685546875
1760554740628441300,4.51944140625,-0.9984893798828125,-0.0269927978515625,0.0109405517578125
1760554740638445300,4.5294453125,-0.9976043701171875,-0.025238037109375,0.009490966796875
1760554740648449500,4.539449462890625,-0.9965057373046875,-0.0272369384765625,0.009735107421875
1760554740658454500,4.54945458984375,-0.997100830078125,-0.024627685546875,0.00848388671875
1760554740668458200,4.559458251953125,-0.999053955078125,-0.0255126953125,0.00946044921875
1760554740678463200,4.569463134765625,-0.996307373046875,-0.0271453857421875,0.01031494140625
1760554740688467200,4.57946728515625,-0.9977264404296875,-0.0276031494140625,0.00970458984375
1760554740698471400,4.589471435546875,-0.999237060546875,-0.026214599609375,0.009765625
1760554740708476400,4.599476318359375,-0.998931884765625,-0.0261383056640625,0.0103607177734375
1760554740718480400,4.60948046875,-0.9985504150390625,-0.025726318359375,0.0077667236328125
1760554740728484400,4.619484375,-0.9989776611328125,-0.026947021484375,0.0097808837890625
1760554740738489300,4.6294892578125,-0.999481201171875,-0.0257720947265625,0.0080108642578125
1760554740748493300,4.639493408203125,-0.99798583984375,-0.026763916015625,0.0097503662109375
1760554740758497300,4.649497314453125,-0.998260498046875,-0.026611328125,0.0087127685546875
1760554740768502300,4.659502197265625,-0.9976806640625,-0.02581787109375,0.0074310302734375
1760554740778506200,4.66950634765625,-0.9988250732421875,-0.02642822265625,0.0091094970703125
1760554740788511200,4.67951123046875,-0.998992919921875,-0.0270843505859375,0.0089874267578125
1760554740798515200,4.68951513671875,-0.998626708984375,-0.026641845703125,0.009246826171875
1760554740808519400,4.69951953125,-0.99749755859375,-0.0269927978515625,0.0085601806640625
1760554740818524400,4.7095244140625,-0.9980316162109375,-0.0269317626953125,0.0078582763671875
1760554740828528400,4.7195283203125,-0.9988250732421875,-0.027191162109375,0.0088958740234375
1760554740838532400,4.729532470703125,-0.9988555908203125,-0.025909423828125,0.009246826171875
1760554740848537300,4.739537353515625,-0.999481201171875,-0.02471923828125,0.0097808837890625
1760554740858541300,4.749541259765625,-0.997772216796875,-0.0262603759765625,0.0100250244140625
1760554740868546300,4.75954638671875,-0.998748779296875,-0.0264434814453125,0.0102996826171875
1760554740878550300,4.76955029296875,-0.99853515625,-0.026123046875,0.00921630859375
1760554740888554200,4.77955419921875,-0.99700927734375,-0.02667236328125,0.0086822509765625
1760554740898559200,4.789559326171875,-0.9981689453125,-0.0261383056640625,0.009765625
1760554740908563500,4.7995634765625,-0.9983062744140625,-0.025634765625,0.009735107421875
1760554740918567400,4.8095673828125,-0.99774169921875,-0.0269622802734375,0.0078582763671875
1760554740928572400,4.819572509765625,-0.9986724853515625,-0.02606201171875,0.010467529296875
1760554740938576100,4.829576171875,-0.9964752197265625,-0.02606201171875,0.009918212890625
1760554740948580400,4.839580322265625,-0.9969940185546875,-0.0262451171875,0.009368896484375
1760554740958585300,4.84958544921875,-0.998077392578125,-0.02655029296875,0.00872802734375
1760554740968589300,4.85958935546875,-0.999176025390625,-0.025848388671875,0.0099334716796875
1760554740978594300,4.86959423828125,-0.998260498046875,-0.0274658203125,0.0088043212890625
1760554740988598300,4.879598388671875,-0.997833251953125,-0.0272369384765625,0.009613037109375
1760554740998602500,4.8896025390625,-0.99884033203125,-0.0274200439453125,0.008819580078125
1760554741008607500,4.899607421875,-0.9977264404296875,-0.02691650390625,0.00933837890625
1760554741018611500,4.909611572265625,-0.998870849609375,-0.0268402099609375,0.010986328125
1760554741028615200,4.919615234375,-0.9973297119140625,-0.02587890625,0.008453369140625
1760554741038620200,4.9296201171875,-0.9986114501953125,-0.0253143310546875,0.0081787109375
1760554741048624400,4.939624267578125,-0.9982757568359375,-0.0267791748046875,0.0090484619140625
1760554741058628400,4.94962841796875,-0.9982452392578125,-0.0266265869140625,0.0096893310546875
1760554741068633300,4.95963330078125,-0.998199462890625,-0.025421142578125,0.008819580078125
1760554741078637300,4.96963720703125,-0.9984588623046875,-0.02630615234375,0.0078582763671875
1760554741088642300,4.979642333984375,-0.99884033203125,-0.025390625,0.009368896484375
1760554741098646500,4.989646484375,-0.9990386962890625,-0.0265045166015625,0.0082244873046875
1760554741108650500,4.999650390625,-0.9973602294921875,-0.0266265869140625,0.00897216796875
1760554741118655500,5.009655517578125,-0.9989776611328125,-0.026092529296875,0.0089569091796875
1760554741128659200,5.0196591796875,-0.998992919921875,-0.026458740234375,0.0092620849609375
1760554741138663200,5.0296630859375,-0.9991455078125,-0.0250701904296875,0.0090484619140625
1760554741148668400,5.03966845703125,-0.997222900390625,-0.025054931640625,0.0094757080078125
1760554741158672400,5.04967236328125,-0.9968719482421875,-0.02496337890625,0.010009765625
1760554741168676400,5.05967626953125,-0.9982147216796875,-0.0265045166015625,0.0095367431640625
1760554741178681300,5.069681396484375,-0.999267578125,-0.026702880859375,0.0072784423828125
1760554741188685300,5.079685302734375,-0.9978179931640625,-0.0264434814453125,0.00872802734375
1760554741198690300,5.089690185546875,-0.99810791015625,-0.0251312255859375,0.0101470947265625
1760554741208694300,5.0996943359375,-0.9987945556640625,-0.02655029296875,0.009429931640625
1760554741218698200,5.1096982421875,-0.998870849609375,-0.0270843505859375,0.0086517333984375
1760554741228703200,5.119703125,-0.9993133544921875,-0.0264434814453125,0.01043701171875
1760554741238707200,5.129707275390625,-0.9976348876953125,-0.0282135009765625,0.0084228515625
1760554741248711400,5.13971142578125,-0.998291015625,-0.0272064208984375,0.0075531005859375
1760554741258716400,5.14971630859375,-0.99761962890625,-0.02679443359375,0.010650634765625
1760554741268720400,5.159720458984375,-0.99737548828125,-0.025146484375,0.0097198486328125
1760554741278724400,5.169724365234375,-0.99859619140625,-0.0277099609375,0.0086822509765625
1760554741288729300,5.179729248046875,-0.9983062744140625,-0.026336669921875,0.0089263916015625
1760554741298733300,5.1897333984375,-0.9976959228515625,-0.026031494140625,0.0092315673828125
1760554741308738300,5.19973828125,-0.998748779296875,-0.0267333984375,0.0086517333984375
1760554741318742300,5.2097421875,-0.999755859375,-0.027191162109375,0.009613037109375
1760554741328746200,5.219746337890625,-0.9971160888671875,-0.028106689453125,0.00921630859375
1760554741338751200,5.229751220703125,-0.9981689453125,-0.0270233154296875,0.0101776123046875
1760554741348755500,5.23975537109375,-0.999298095703125,-0.0261993408203125,0.0101318359375
1760554741358759400,5.249759521484375,-0.998260498046875,-0.02679443359375,0.0101776123046875
1760554741368764400,5.259764404296875,-0.998077392578125,-0.026580810546875,0.0113067626953125
1760554741378768400,5.269768310546875,-0.9981536865234375,-0.02593994140625,0.009429931640625
1760554741388773400,5.2797734375,-0.9981689453125,-0.026702880859375,0.009033203125
1760554741398777300,5.28977734375,-0.998626708984375,-0.02716064453125,0.010162353515625
1760554741408781300,5.29978125,-0.9979095458984375,-0.0260467529296875,0.00970458984375
1760554741418786300,5.309786376953125,-0.9986724853515625,-0.026641845703125,0.008544921875
1760554741428790300,5.319790283203125,-0.9999237060546875,-0.0279541015625,0.0093536376953125
1760554741438794500,5.32979443359375,-0.9990234375,-0.0254364013671875,0.0091094970703125
1760554741448799500,5.339799560546875,-0.999542236328125,-0.0260162353515625,0.009796142578125
1760554741458803500,5.349803466796875,-0.9988250732421875,-0.0246124267578125,0.010955810546875
1760554741468807200,5.35980712890625,-0.998199462890625,-0.0265350341796875,0.0088348388671875
1760554741478812200,5.369812255859375,-0.9989013671875,-0.0277099609375,0.009307861328125
1760554741488816400,5.37981640625,-1.0001678466796875,-0.0264892578125,0.010772705078125
1760554741498820900,5.38982080078125,-0.9987640380859375,-0.02557373046875,0.0098724365234375
1760554741508824800,5.399824951171875,-0.9983978271484375,-0.0262908935546875,0.00958251953125
1760554741518828800,5.409828857421875,-0.9976959228515625,-0.0259246826171875,0.0106964111328125
1760554741528833800,5.419833740234375,-0.99835205078125,-0.0277252197265625,0.0085906982421875
1760554741538838000,5.429838134765625,-0.9979400634765625,-0.0269927978515625,0.0089111328125
1760554741548842000,5.439842041015625,-0.9979248046875,-0.027587890625,0.00921630859375
1760554741558847000,5.449846923828125,-0.9988861083984375,-0.0264129638671875,0.008026123046875
1760554741568850700,5.4598505859375,-1.0005950927734375,-0.0258331298828125,0.0101165771484375
1760554741578855000,5.46985498046875,-0.9984130859375,-0.0269775390625,0.0080413818359375
1760554741588860000,5.47985986328125,-0.9970855712890625,-0.0263824462890625,0.0085601806640625
1760554741598864000,5.48986376953125,-0.998077392578125,-0.0263214111328125,0.0083465576171875
1760554741608868900,5.499868896484375,-0.997955322265625,-0.0255279541015625,0.0087432861328125
1760554741618872800,5.509872802734375,-1.0001373291015625,-0.024322509765625,0.009765625
1760554741628876800,5.519876708984375,-0.9985198974609375,-0.027069091796875,0.0107421875
1760554741638882000,5.529882080078125,-0.999114990234375,-0.0266265869140625,0.0096588134765625
1760554741648886000,5.539885986328125,-0.999420166015625,-0.0270233154296875,0.0072174072265625
1760554741658889700,5.5498896484375,-0.9993743896484375,-0.0264129638671875,0.0089569091796875
1760554741668894700,5.559894775390625,-0.9987030029296875,-0.026611328125,0.009521484375
1760554741678898700,5.569898681640625,-0.9992218017578125,-0.02642822265625,0.01092529296875
1760554741688903000,5.57990283203125,-0.9991455078125,-0.0256195068359375,0.0093994140625
1760554741698908000,5.589907958984375,-0.9979400634765625,-0.0258941650390625,0.0091552734375
1760554741708911900,5.599911865234375,-0.99835205078125,-0.0266265869140625,0.0082244873046875
1760554741718916900,5.609916748046875,-0.9985504150390625,-0.0260772705078125,0.010833740234375
1760554741728920800,5.6199208984375,-0.9989776611328125,-0.0256195068359375,0.0101470947265625
1760554741738925000,5.629925048828125,-0.9984893798828125,-0.02642822265625,0.0090789794921875
1760554741748930000,5.639929931640625,-0.99749755859375,-0.0261383056640625,0.0099639892578125
1760554741758933800,5.649933837890625,-0.9981689453125,-0.026031494140625,0.0084075927734375
1760554741768937700,5.659937744140625,-1.00079345703125,-0.0262603759765625,0.009857177734375
1760554741778942700,5.669942626953125,-0.9970550537109375,-0.02581787109375,0.00726318359375
1760554741788947000,5.679947021484375,-0.99951171875,-0.0247802734375,0.009033203125
1760554741798951000,5.689950927734375,-0.9976043701171875,-0.0265045166015625,0.008819580078125
1760554741808956000,5.699955810546875,-0.998870849609375,-0.02606201171875,0.00970458984375
1760554741818960000,5.7099599609375,-0.9990081787109375,-0.027252197265625,0.0079498291015625
1760554741828964900,5.71996484375,-0.9972686767578125,-0.0264739990234375,0.0079803466796875
1760554741838968800,5.72996875,-0.99896240234375,-0.0258636474609375,0.0101165771484375
1760554741848972800,5.739972900390625,-0.99908447265625,-0.025665283203125,0.011260986328125
1760554741858977800,5.749977783203125,-0.9998931884765625,-0.0252838134765625,0.008544921875
1760554741868981800,5.759981689453125,-0.99859619140625,-0.027374267578125,0.009033203125
1760554741878986000,5.769986083984375,-0.99835205078125,-0.0269622802734375,0.008758544921875
1760554741888991000,5.779990966796875,-0.9977264404296875,-0.025177001953125,0.009521484375
1760554741898995000,5.789994873046875,-1.0001678466796875,-0.026214599609375,0.0076446533203125
1760554741908999000,5.7999990234375,-0.99835205078125,-0.0265045166015625,0.0083465576171875
1760554741919004000,5.81000390625,-0.998443603515625,-0.0262603759765625,0.009429931640625
1760554741929007900,5.8200078125,-0.998504638671875,-0.024871826171875,0.0093536376953125
1760554741939012900,5.830012939453125,-1.0004119873046875,-0.025604248046875,0.0101776123046875
1760554741949016800,5.840016845703125,-0.9974822998046875,-0.026214599609375,0.0103302001953125
1760554741959020800,5.850020751953125,-0.9981842041015625,-0.026580810546875,0.009674072265625
1760554741969025800,5.86002587890625,-0.99810791015625,-0.0264434814453125,0.0102691650390625
1760554741979030000,5.870030029296875,-0.999267578125,-0.0264129638671875,0.00799560546875
1760554741989034000,5.880033935546875,-0.998779296875,-0.027496337890625,0.0076141357421875
1760554741999039000,5.8900390625,-0.99786376953125,-0.0268402099609375,0.00860595703125
1760554742009043000,5.90004296875,-0.9987640380859375,-0.0271759033203125,0.0104522705078125
1760554742019046700,5.910046630859375,-0.998260498046875,-0.0257720947265625,0.0110931396484375
1760554742029052000,5.920052001953125,-0.998046875,-0.0263824462890625,0.0098114013671875
1760554742039056000,5.930055908203125,-0.997650146484375,-0.0274505615234375,0.008697509765625
1760554742049060900,5.940060791015625,-0.998931884765625,-0.026611328125,0.008880615234375
1760554742059064800,5.95006494140625,-0.9970550537109375,-0.0262908935546875,0.010162353515625
1760554742069068800,5.96006884765625,-0.9970855712890625,-0.0260467529296875,0.009552001953125
1760554742079073800,5.97007373046875,-0.998138427734375,-0.02667236328125,0.00946044921875
1760554742089078000,5.980078125,-0.998321533203125,-0.0274505615234375,0.0107269287109375
1760554742099081700,5.990081787109375,-0.9992218017578125,-0.02642822265625,0.0084991455078125
1760554742109086700,6.000086669921875,-0.9996337890625,-0.027008056640625,0.0084381103515625
1760554742119090700,6.010090576171875,-0.9980621337890625,-0.0277252197265625,0.0085296630859375
1760554742129095000,6.020094970703125,-0.996734619140625,-0.0266571044921875,0.007965087890625
1760554742139100000,6.030099853515625,-0.9983978271484375,-0.0271148681640625,0.0087127685546875
1760554742149103900,6.040103759765625,-0.9989013671875,-0.0274658203125,0.01025390625
1760554742159108900,6.05010888671875,-0.99798583984375,-0.025787353515625,0.008056640625
1760554742169112800,6.06011279296875,-0.99676513671875,-0.0262603759765625,0.0099639892578125
1760554742179117000,6.070116943359375,-0.9988250732421875,-0.02789306640625,0.008880615234375
1760554742189122000,6.0801220703125,-0.9983673095703125,-0.0270538330078125,0.008819580078125
1760554742199125800,6.090125732421875,-0.9977569580078125,-0.027069091796875,0.009246826171875
1760554742209129700,6.100129638671875,-0.9976654052734375,-0.0266265869140625,0.00933837890625
1760554742219134700,6.110134765625,-0.9974212646484375,-0.02764892578125,0.0081787109375
1760554742229139000,6.120138916015625,-0.99951171875,-0.0277557373046875,0.010711669921875
1760554742239143000,6.130142822265625,-0.9990386962890625,-0.0268707275390625,0.0080413818359375
1760554742249148000,6.14014794921875,-0.9978790283203125,-0.0259552001953125,0.0082855224609375
1760554742259152000,6.15015185546875,-1.0001373291015625,-0.026153564453125,0.010986328125
1760554742269156900,6.160156982421875,-0.9976806640625,-0.027740478515625,0.009735107421875
1760554742279161000,6.1701611328125,-0.9980926513671875,-0.0276641845703125,0.0084991455078125
1760554742289164800,6.180164794921875,-0.9966278076171875,-0.0252838134765625,0.010009765625
1760554742299169800,6.190169677734375,-0.9984130859375,-0.025146484375,0.008270263671875
1760554742309173800,6.200173828125,-0.997802734375,-0.0262908935546875,0.0088043212890625
1760554742319178000,6.210177978515625,-0.9990997314453125,-0.026824951171875,0.0096282958984375
1760554742329183000,6.220182861328125,-0.999481201171875,-0.0267333984375,0.0103912353515625
1760554742339187000,6.23018701171875,-0.99951171875,-0.0251312255859375,0.0105438232421875
1760554742349191000,6.24019091796875,-0.9986572265625,-0.02606201171875,0.010101318359375
1760554742359196000,6.25019580078125,-0.9987030029296875,-0.02557373046875,0.0097503662109375
1760554742369199900,6.260199951171875,-0.99847412109375,-0.024871826171875,0.0093536376953125
1760554742379204900,6.270204833984375,-0.9969482421875,-0.027008056640625,0.0091094970703125
1760554742389208800,6.280208740234375,-0.9986724853515625,-0.0258331298828125,0.0088043212890625
1760554742399212800,6.290212890625,-0.9978179931640625,-0.026519775390625,0.0098114013671875
1760554742409217800,6.3002177734375,-0.998016357421875,-0.026214599609375,0.0089569091796875
1760554742419221800,6.3102216796875,-0.997100830078125,-0.025909423828125,0.008880615234375
1760554742429226000,6.32022607421875,-0.99749755859375,-0.0274505615234375,0.00830078125
1760554742439231000,6.33023095703125,-0.9970855712890625,-0.0272064208984375,0.009979248046875
1760554742449235000,6.34023486328125,-0.99700927734375,-0.025787353515625,0.0102691650390625
1760554742459238700,6.35023876953125,-0.9981842041015625,-0.026702880859375,0.0105133056640625
1760554742469243600,6.36024365234375,-0.997772216796875,-0.0250701904296875,0.009613037109375
1760554742479248000,6.370247802734375,-0.9984130859375,-0.025726318359375,0.008636474609375
1760554742489252900,6.3802529296875,-0.9979400634765625,-0.027252197265625,0.0090789794921875
1760554742499257300,6.39025732421875,-0.9984588623046875,-0.02587890625,0.0086212158203125
1760554742509261000,6.400260986328125,-0.999298095703125,-0.0249786376953125,0.00732421875
1760554742519266000,6.41026611328125,-0.999664306640625,-0.026702880859375,0.0081024169921875
1760554742529270300,6.420270263671875,-0.99737548828125,-0.026031494140625,0.010162353515625
1760554742539274200,6.430274169921875,-0.9972991943359375,-0.0259857177734375,0.0093231201171875
1760554742549279200,6.440279296875,-0.99810791015625,-0.0252227783203125,0.010284423828125
1760554742559283200,6.450283203125,-0.99761962890625,-0.02618408203125,0.009063720703125
1760554742569288200,6.4602880859375,-0.9971160888671875,-0.02496337890625,0.0090789794921875
1760554742579292400,6.47029248046875,-0.998626708984375,-0.02667236328125,0.00860595703125
1760554742589296400,6.48029638671875,-0.998382568359375,-0.0273590087890625,0.0074310302734375
1760554742599301400,6.49030126953125,-0.998870849609375,-0.0264739990234375,0.00946044921875
1760554742609305000,6.50030517578125,-0.9985198974609375,-0.026031494140625,0.0086822509765625
1760554742619309300,6.510309326171875,-0.99798583984375,-0.026611328125,0.0095977783203125
1760554742629314300,6.520314208984375,-0.9982757568359375,-0.0252685546875,0.0088043212890625
1760554742639318300,6.530318359375,-0.999786376953125,-0.0278778076171875,0.010040283203125
1760554742649322200,6.540322265625,-0.99969482421875,-0.0265960693359375,0.00982666015625
1760554742659327200,6.5503271484375,-0.9980010986328125,-0.0253753662109375,0.008636474609375
1760554742669331200,6.560331298828125,-0.9969482421875,-0.0258026123046875,0.0086517333984375
1760554742679336200,6.570336181640625,-0.9982452392578125,-0.0258331298828125,0.0104522705078125
1760554742689340400,6.58034033203125,-0.9994354248046875,-0.0269775390625,0.010650634765625
1760554742699344100,6.59034423828125,-0.9978790283203125,-0.0263519287109375,0.0088043212890625
1760554742709349000,6.60034912109375,-0.997711181640625,-0.0268402099609375,0.009979248046875
1760554742719353000,6.61035302734375,-0.9991912841796875,-0.0256805419921875,0.01116943359375
1760554742729357300,6.620357421875,-0.999114990234375,-0.025543212890625,0.0092315673828125
1760554742739362300,6.6303623046875,-0.9983062744140625,-0.025909423828125,0.0088958740234375
1760554742749366300,6.6403662109375,-0.998809814453125,-0.0268402099609375,0.0089111328125
1760554742759371300,6.650371337890625,-0.9986724853515625,-0.0276031494140625,0.00958251953125
1760554742769375200,6.660375244140625,-0.9974517822265625,-0.025604248046875,0.008697509765625
1760554742779379200,6.670379150390625,-0.9978485107421875,-0.0262298583984375,0.0101165771484375
1760554742789384200,6.68038427734375,-0.997528076171875,-0.0266571044921875,0.00958251953125
1760554742799388200,6.69038818359375,-0.999603271484375,-0.0257415771484375,0.0092010498046875
1760554742809392000,6.70039208984375,-0.998626708984375,-0.02581787109375,0.0084228515625
1760554742819397000,6.710397216796875,-0.9989776611328125,-0.026092529296875,0.0091094970703125
1760554742829401300,6.7204013671875,-0.9983062744140625,-0.0270843505859375,0.00848388671875
1760554742839405300,6.7304052734375,-0.9983978271484375,-0.0263824462890625,0.008270263671875
1760554742849410300,6.740410400390625,-0.9990386962890625,-0.0267333984375,0.0093841552734375
1760554742859414300,6.750414306640625,-0.9978179931640625,-0.025299072265625,0.010040283203125
1760554742869419300,6.760419189453125,-0.9971466064453125,-0.0266265869140625,0.009613037109375
1760554742879423200,6.77042333984375,-0.997772216796875,-0.02685546875,0.010406494140625
1760554742889427200,6.78042724609375,-0.998077392578125,-0.0276031494140625,0.009429931640625
1760554742899432200,6.79043212890625,-0.998260498046875,-0.0264739990234375,0.0091094970703125
1760554742909436200,6.800436279296875,-0.99920654296875,-0.02655029296875,0.00927734375
1760554742919440400,6.8104404296875,-0.9985504150390625,-0.0264739990234375,0.00860595703125
1760554742929445400,6.8204453125,-0.998382568359375,-0.0275726318359375,0.010650634765625
1760554742939449300,6.830449462890625,-0.99853515625,-0.026763916015625,0.0107879638671875
1760554742949453300,6.840453369140625,-0.9974212646484375,-0.027099609375,0.0099334716796875
1760554742959458300,6.850458251953125,-0.998016357421875,-0.025634765625,0.009613037109375
1760554742969462300,6.860462158203125,-0.99908447265625,-0.0276031494140625,0.00811767578125
1760554742979467300,6.87046728515625,-0.9988555908203125,-0.0263519287109375,0.00799560546875
1760554742989471200,6.88047119140625,-0.99737548828125,-0.0274505615234375,0.0091094970703125
1760554742999475200,6.89047509765625,-0.998748779296875,-0.02587890625,0.0091705322265625
1760554743009480200,6.900480224609375,-0.9984588623046875,-0.0260772705078125,0.0093994140625
1760554743019484200,6.910484130859375,-0.999420166015625,-0.0262298583984375,0.0077667236328125
1760554743029488400,6.92048828125,-0.998748779296875,-0.0265350341796875,0.0099639892578125
1760554743039493400,6.930493408203125,-1.0000152587890625,-0.0267791748046875,0.011322021484375
1760554743049497000,6.9404970703125,-0.9980926513671875,-0.0270538330078125,0.0101470947265625
1760554743059501000,6.9505009765625,-0.9967803955078125,-0.02752685546875,0.0087127685546875
1760554743069506000,6.960506103515625,-0.999786376953125,-0.026397705078125,0.0092010498046875
1760554743079510300,6.97051025390625,-0.9980621337890625,-0.0272674560546875,0.0092010498046875
1760554743089515300,6.980515380859375,-0.997955322265625,-0.0259246826171875,0.0081787109375
1760554743099519200,6.990519287109375,-0.9987945556640625,-0.025360107421875,0.0087432861328125
1760554743109523200,7.000523193359375,-0.9981231689453125,-0.0251312255859375,0.0079803466796875
1760554743119528200,7.010528076171875,-0.9976348876953125,-0.0267486572265625,0.0089263916015625
1760554743129532400,7.020532470703125,-0.997100830078125,-0.025299072265625,0.00921630859375
1760554743139536100,7.0305361328125,-0.99896240234375,-0.026458740234375,0.0086517333984375
1760554743149541000,7.040541015625,-0.999267578125,-0.02679443359375,0.0099945068359375
1760554743159545000,7.050545166015625,-0.9984130859375,-0.0263824462890625,0.00909423828125
1760554743169550000,7.060550048828125,-0.9973907470703125,-0.0268402099609375,0.0098114013671875
1760554743179554300,7.07055419921875,-0.998382568359375,-0.0265960693359375,0.0089874267578125
1760554743189558300,7.080558349609375,-0.9979095458984375,-0.0254669189453125,0.0086517333984375
1760554743199563300,7.090563232421875,-0.9976959228515625,-0.0247955322265625,0.0081329345703125
1760554743209567200,7.100567138671875,-0.9989013671875,-0.02685546875,0.0090789794921875
1760554743219571500,7.110571533203125,-0.997802734375,-0.02593994140625,0.0085906982421875
1760554743229576400,7.120576416015625,-0.9982757568359375,-0.0264129638671875,0.00860595703125
1760554743239580200,7.130580078125,-1.0004119873046875,-0.026031494140625,0.0098114013671875
1760554743249584000,7.140584228515625,-0.9990692138671875,-0.025146484375,0.0106964111328125
1760554743259589000,7.150589111328125,-0.9971466064453125,-0.026092529296875,0.010467529296875
1760554743269593300,7.16059326171875,-0.99786376953125,-0.0275421142578125,0.010772705078125
1760554743279598300,7.170598388671875,-0.9969329833984375,-0.026580810546875,0.0103759765625
1760554743289602300,7.180602294921875,-0.9967041015625,-0.0268096923828125,0.009979248046875
1760554743299606300,7.190606201171875,-0.9970703125,-0.027130126953125,0.0102996826171875
1760554743309611300,7.200611328125,-0.999114990234375,-0.02740478515625,0.010284423828125
1760554743319615500,7.210615478515625,-1.0002593994140625,-0.0254364013671875,0.0100860595703125
1760554743329619200,7.220619140625,-1.0003204345703125,-0.0258026123046875,0.009124755859375
1760554743339624200,7.230624267578125,-0.9989013671875,-0.0264434814453125,0.0100555419921875
1760554743349628200,7.240628173828125,-0.997711181640625,-0.0264892578125,0.00946044921875
1760554743359633200,7.250633056640625,-0.9987945556640625,-0.0270233154296875,0.0092620849609375
1760554743369637400,7.260637451171875,-0.9996795654296875,-0.026824951171875,0.007598876953125
1760554743379641300,7.270641357421875,-0.9983062744140625,-0.025634765625,0.0087738037109375
1760554743389646300,7.280646240234375,-0.99945068359375,-0.0260467529296875,0.010772705078125
1760554743399650300,7.290650390625,-1.00006103515625,-0.0241241455078125,0.009674072265625
1760554743409654000,7.300654052734375,-0.998992919921875,-0.0262603759765625,0.0096588134765625
1760554743419659300,7.3106591796875,-0.9989471435546875,-0.0272674560546875,0.00933837890625
1760554743429663200,7.320663330078125,-0.9981231689453125,-0.027008056640625,0.0092315673828125
1760554743439667200,7.330667236328125,-0.998382568359375,-0.026397705078125,0.009490966796875
1760554743449672200,7.340672119140625,-0.9980926513671875,-0.026702880859375,0.010528564453125
1760554743459676200,7.35067626953125,-0.9977874755859375,-0.026885986328125,0.010833740234375
1760554743469681200,7.36068115234375,-0.99884033203125,-0.02630615234375,0.0110015869140625
1760554743479685400,7.370685302734375,-0.9966888427734375,-0.027618408203125,0.00909423828125
1760554743489689300,7.380689453125,-0.9971466064453125,-0.028839111328125,0.00775146484375
1760554743499695000,7.390695068359375,-0.996551513671875,-0.0268402099609375,0.0090179443359375
1760554743509698800,7.40069873046875,-0.998565673828125,-0.026123046875,0.010223388671875
1760554743519702800,7.410702880859375,-0.998382568359375,-0.0272064208984375,0.0088653564453125
1760554743529708000,7.4207080078125,-0.99700927734375,-0.0253753662109375,0.0099945068359375
1760554743539712000,7.4307119140625,-0.9980926513671875,-0.025054931640625,0.008544921875
1760554743549717000,7.440717041015625,-0.998992919921875,-0.0262451171875,0.0068817138671875
1760554743559721000,7.450720947265625,-0.999267578125,-0.0249481201171875,0.0081634521484375
1760554743569725000,7.460724853515625,-0.9992218017578125,-0.02569580078125,0.009033203125
1760554743579730000,7.47072998046875,-0.998504638671875,-0.024017333984375,0.008880615234375
1760554743589734000,7.48073388671875,-0.998443603515625,-0.0265960693359375,0.00958251953125
1760554743599737900,7.49073779296875,-0.997802734375,-0.0271453857421875,0.00823974609375
1760554743609742800,7.500742919921875,-0.998565673828125,-0.0283355712890625,0.009002685546875
1760554743619746800,7.510746826171875,-0.997314453125,-0.0286407470703125,0.0096282958984375
1760554743629751000,7.5207509765625,-0.9972686767578125,-0.027191162109375,0.0121612548828125
1760554743639756000,7.530756103515625,-0.9967041015625,-0.02691650390625,0.0121307373046875
1760554743649760000,7.540760009765625,-0.9995574951171875,-0.0271759033203125,0.0101318359375
1760554743659765000,7.550764892578125,-0.9985504150390625,-0.0286102294921875,0.009613037109375
1760554743669769000,7.56076904296875,-0.999481201171875,-0.0267486572265625,0.00836181640625
1760554743679773000,7.57077294921875,-0.997802734375,-0.0257415771484375,0.0071258544921875
1760554743689778000,7.58077783203125,-0.9979095458984375,-0.024749755859375,0.0086517333984375
1760554743699782000,7.590781982421875,-0.9987945556640625,-0.02606201171875,0.0072479248046875
1760554743709785900,7.600785888671875,-0.99859619140625,-0.0247650146484375,0.0081329345703125
1760554743719790800,7.610790771484375,-0.9992828369140625,-0.0266571044921875,0.0074310302734375
1760554743729795000,7.620795166015625,-0.9983367919921875,-0.0254669189453125,0.007537841796875
1760554743739800000,7.630800048828125,-0.9964599609375,-0.02532958984375,0.0109405517578125
1760554743749804000,7.640803955078125,-0.99871826171875,-0.025482177734375,0.0097198486328125
1760554743759808000,7.65080810546875,-0.9980621337890625,-0.0266265869140625,0.0095062255859375
1760554743769813000,7.66081298828125,-0.99896240234375,-0.027252197265625,0.009521484375
1760554743779817000,7.67081689453125,-0.99835205078125,-0.0279998779296875,0.0103302001953125
1760554743789821000,7.680821044921875,-0.998809814453125,-0.0270538330078125,0.008941650390625
1760554743799826000,7.690825927734375,-0.9984588623046875,-0.028228759765625,0.00946044921875
1760554743809830000,7.700829833984375,-0.9975128173828125,-0.0281524658203125,0.0106048583984375
1760554743819834000,7.710834228515625,-0.99835205078125,-0.026458740234375,0.011138916015625
1760554743829839000,7.720839111328125,-0.99884033203125,-0.0258636474609375,0.0098419189453125
1760554743839843000,7.730843017578125,-1.0006256103515625,-0.026336669921875,0.00836181640625
1760554743849848000,7.74084814453125,-0.998046875,-0.0265960693359375,0.009979248046875
1760554743859851800,7.750851806640625,-0.9979400634765625,-0.0263519287109375,0.0086212158203125
1760554743869856000,7.76085595703125,-0.9984130859375,-0.0272064208984375,0.00714111328125
1760554743879861000,7.770861083984375,-0.9977569580078125,-0.02545166015625,0.0080413818359375
1760554743889865000,7.780864990234375,-0.9995269775390625,-0.025970458984375,0.0111083984375
1760554743899869000,7.790868896484375,-0.997039794921875,-0.026611328125,0.0108795166015625
1760554743909874000,7.8008740234375,-0.9996185302734375,-0.0258636474609375,0.0113067626953125
1760554743919878000,7.8108779296875,-0.9988250732421875,-0.0258331298828125,0.009521484375
1760554743929883000,7.8208828125,-0.9983673095703125,-0.026458740234375,0.0082855224609375
1760554743939887000,7.83088720703125,-0.9982452392578125,-0.026885986328125,0.0074615478515625
1760554743949890800,7.840890869140625,-0.997894287109375,-0.0288238525390625,0.0081787109375
1760554743959895800,7.850895751953125,-0.9969940185546875,-0.027618408203125,0.0102996826171875
1760554743969899800,7.860899658203125,-0.99853515625,-0.0258636474609375,0.0091094970703125
1760554743979904000,7.870904052734375,-0.9994049072265625,-0.02667236328125,0.0093231201171875
1760554743989909000,7.880908935546875,-0.9981842041015625,-0.0262298583984375,0.0101776123046875
1760554743999913000,7.890912841796875,-0.9981231689453125,-0.026275634765625,0.0095062255859375
1760554744009917000,7.9009169921875,-0.99835205078125,-0.02557373046875,0.0103302001953125
1760554744019922000,7.910921875,-0.9988250732421875,-0.025543212890625,0.0098419189453125
1760554744029926100,7.920926025390625,-0.9984588623046875,-0.0266571044921875,0.009368896484375
1760554744039931100,7.93093115234375,-0.999053955078125,-0.0247039794921875,0.0095367431640625
1760554744049934800,7.940934814453125,-0.99761962890625,-0.0239105224609375,0.0083160400390625
1760554744059938800,7.950938720703125,-0.9991455078125,-0.0253753662109375,0.0079498291015625
1760554744069943800,7.96094384765625,-0.9994354248046875,-0.02691650390625,0.008270263671875
1760554744079948000,7.970947998046875,-1.0000457763671875,-0.026824951171875,0.0085296630859375
1760554744089952000,7.980951904296875,-0.9982147216796875,-0.0249176025390625,0.008880615234375
1760554744099956000,7.9909560546875,-0.9993133544921875,-0.0247039794921875,0.0096588134765625
1760554744109960000,8.0009599609375,-0.9999237060546875,-0.0249786376953125,0.0103607177734375
1760554744119964000,8.0109638671875,-0.9987030029296875,-0.0264892578125,0.0125274658203125
1760554744129969000,8.020968994140626,-0.99761962890625,-0.02716064453125,0.0115509033203125
1760554744139972900,8.030972900390625,-0.9982757568359375,-0.0294036865234375,0.012451171875
1760554744149977900,8.040977783203125,-0.998291015625,-0.029937744140625,0.011444091796875
1760554744159982000,8.050982177734374,-0.996978759765625,-0.0291290283203125,0.0096893310546875
1760554744169986000,8.060986083984375,-0.99786376953125,-0.029266357421875,0.007080078125
1760554744179991000,8.070990966796876,-0.996734619140625,-0.0277862548828125,0.007598876953125
1760554744189995000,8.0809951171875,-0.997222900390625,-0.025604248046875,0.00860595703125
1760554744199999000,8.0909990234375,-0.999114990234375,-0.0246124267578125,0.0108489990234375
1760554744210004000,8.10100390625,-0.9994964599609375,-0.0236968994140625,0.0096588134765625
1760554744220008000,8.111008056640625,-0.9989471435546875,-0.023162841796875,0.006866455078125
1760554744230012000,8.121011962890625,-0.9987335205078125,-0.0243377685546875,0.007965087890625
1760554744240017000,8.131016845703124,-0.9972991943359375,-0.0253143310546875,0.00592041015625
1760554744250020900,8.141020751953125,-0.9981842041015625,-0.02447509765625,0.007598876953125
1760554744260025900,8.15102587890625,-0.9985198974609375,-0.02520751953125,0.008148193359375
1760554744270030000,8.161030029296874,-0.998443603515625,-0.0279693603515625,0.008331298828125
1760554744280034000,8.171033935546875,-0.99786376953125,-0.02801513671875,0.0086212158203125
1760554744290039000,8.1810390625,-0.99755859375,-0.0276031494140625,0.0107269287109375
1760554744300042800,8.191042724609375,-0.9970245361328125,-0.029144287109375,0.0091552734375
1760554744310047000,8.201046875,-0.9981689453125,-0.029052734375,0.0095367431640625
1760554744320052000,8.211052001953124,-0.9971771240234375,-0.029052734375,0.0121917724609375
1760554744330056000,8.221055908203125,-0.9977569580078125,-0.02703857421875,0.01458740234375
1760554744340061000,8.23106103515625,-0.9984283447265625,-0.0273895263671875,0.0147705078125
1760554744350065000,8.24106494140625,-0.9969482421875,-0.0290985107421875,0.0088653564453125
1760554744360069000,8.251069091796875,-0.996917724609375,-0.0283050537109375,0.00726318359375
1760554744370074000,8.26107421875,-0.99700927734375,-0.0284576416015625,0.0077362060546875
1760554744380077800,8.271077880859375,-0.9979400634765625,-0.0262298583984375,0.006622314453125
1760554744390081800,8.281081787109375,-0.998870849609375,-0.024383544921875,0.007415771484375
1760554744400086800,8.291086669921874,-0.9990386962890625,-0.0239105224609375,0.0090789794921875
1760554744410091000,8.301091064453125,-0.9999542236328125,-0.0218658447265625,0.00836181640625
1760554744420096000,8.311095947265626,-0.9995574951171875,-0.0229644775390625,0.0071868896484375
1760554744430100000,8.321099853515625,-1.000335693359375,-0.024169921875,0.0047607421875
1760554744440104000,8.33110400390625,-1.0005950927734375,-0.0244140625,0.005279541015625
1760554744450109000,8.34110888671875,-1.0009765625,-0.0230865478515625,0.0083465576171875
1760554744460113200,8.351113037109375,-1.001434326171875,-0.02386474609375,0.0080108642578125
1760554744470116900,8.361116943359375,-0.9998626708984375,-0.02435302734375,0.0116424560546875
1760554744480121900,8.371121826171875,-0.999114990234375,-0.0273590087890625,0.011199951171875
1760554744490126800,8.381126953125,-0.9976959228515625,-0.0296173095703125,0.009918212890625
1760554744500130300,8.39113037109375,-0.9967803955078125,-0.0313568115234375,0.00933837890625
1760554744510134500,8.401134521484375,-0.9949493408203125,-0.031890869140625,0.0093841552734375
1760554744520139500,8.411139404296875,-0.9956817626953125,-0.0306243896484375,0.010772705078125
1760554744530143500,8.4211435546875,-0.9971466064453125,-0.0294189453125,0.011199951171875
1760554744540147500,8.4311474609375,-0.9971771240234375,-0.027618408203125,0.010589599609375
1760554744550152400,8.44115234375,-0.9991607666015625,-0.02313232421875,0.0103302001953125
1760554744560156400,8.451156494140625,-1.0005035400390625,-0.0240936279296875,0.00927734375
1760554744570161400,8.461161376953125,-1.0004425048828125,-0.02410888671875,0.0101776123046875
1760554744580165400,8.471165283203124,-0.999237060546875,-0.0242462158203125,0.0083160400390625
1760554744590169300,8.48116943359375,-0.9986724853515625,-0.02642822265625,0.009124755859375
1760554744600174300,8.49117431640625,-0.9984893798828125,-0.02532958984375,0.007110595703125
1760554744610178600,8.501178466796874,-0.998321533203125,-0.0272674560546875,0.00860595703125
1760554744620182500,8.5111826171875,-0.99810791015625,-0.0272369384765625,0.00897216796875
1760554744630187500,8.5211875,-0.99853515625,-0.0259857177734375,0.009490966796875
1760554744640191500,8.53119140625,-0.99871826171875,-0.02655029296875,0.00946044921875
1760554744650196500,8.541196533203125,-0.99951171875,-0.0261077880859375,0.0089111328125
1760554744660200400,8.551200439453124,-0.998077392578125,-0.0265960693359375,0.0084075927734375
1760554744670204400,8.561204345703125,-0.999053955078125,-0.0265960693359375,0.0095977783203125
1760554744680209400,8.57120947265625,-0.9987030029296875,-0.025604248046875,0.0098419189453125
1760554744690213400,8.58121337890625,-0.9981536865234375,-0.0276947021484375,0.0117645263671875
1760554744700217600,8.591217529296875,-0.999114990234375,-0.0266571044921875,0.0108184814453125
1760554744710222600,8.60122265625,-0.998199462890625,-0.027801513671875,0.0098419189453125
1760554744720226600,8.6112265625,-0.9983978271484375,-0.0274658203125,0.0083160400390625
1760554744730230500,8.62123046875,-0.997894287109375,-0.0268402099609375,0.009735107421875
1760554744740235500,8.631235595703124,-0.9980010986328125,-0.0274505615234375,0.0082244873046875
1760554744750239500,8.641239501953125,-0.9993896484375,-0.0240936279296875,0.0086822509765625
1760554744760244500,8.651244384765626,-0.998504638671875,-0.0252685546875,0.0109405517578125
1760554744770248400,8.66124853515625,-0.999664306640625,-0.0235595703125,0.009307861328125
1760554744780252400,8.67125244140625,-1.000030517578125,-0.0241851806640625,0.0084228515625
1760554744790257400,8.68125732421875,-0.9991302490234375,-0.025482177734375,0.009857177734375
1760554744800261400,8.691261474609375,-0.9994354248046875,-0.0244293212890625,0.010101318359375
1760554744810266400,8.701266357421876,-0.999267578125,-0.0265350341796875,0.008270263671875
1760554744820270600,8.7112705078125,-0.9990234375,-0.0251617431640625,0.00921630859375
1760554744830274300,8.7212744140625,-0.9971771240234375,-0.0263671875,0.009185791015625
1760554744840279300,8.731279296875,-0.9966888427734375,-0.02783203125,0.0083160400390625
1760554744850283300,8.741283203125,-0.9994659423828125,-0.026611328125,0.0092315673828125
1760554744860287500,8.75128759765625,-0.9975433349609375,-0.0279693603515625,0.0082550048828125
1760554744870292500,8.76129248046875,-0.9974822998046875,-0.0271759033203125,0.0090484619140625
1760554744880296400,8.77129638671875,-0.997894287109375,-0.0267181396484375,0.0088653564453125
1760554744890300400,8.781300537109376,-0.9996337890625,-0.0265350341796875,0.010223388671875
1760554744900305400,8.791305419921875,-0.9996490478515625,-0.0264434814453125,0.0095062255859375
1760554744910309600,8.8013095703125,-0.99810791015625,-0.0271759033203125,0.00958251953125
1760554744920314600,8.811314697265624,-1.0008697509765625,-0.02496337890625,0.00982666015625
1760554744930318300,8.821318359375,-0.9989776611328125,-0.02490234375,0.009490966796875
1760554744940322300,8.831322265625,-0.9974365234375,-0.025604248046875,0.0094146728515625
1760554744950327300,8.841327392578124,-0.9995880126953125,-0.027374267578125,0.008880615234375
1760554744960331500,8.85133154296875,-0.9984893798828125,-0.0273590087890625,0.0071563720703125
1760554744970335500,8.86133544921875,-0.9986572265625,-0.025482177734375,0.0080718994140625
1760554744980340500,8.871340576171875,-0.9984130859375,-0.024749755859375,0.0081787109375
1760554744990344400,8.881344482421875,-0.998199462890625,-0.0252227783203125,0.0078277587890625
1760554745000349400,8.891349365234374,-0.9987335205078125,-0.0252838134765625,0.0077972412109375
1760554745010353700,8.901353759765625,-0.999542236328125,-0.0251007080078125,0.0081787109375
1760554745020357400,8.911357421875,-0.998565673828125,-0.026092529296875,0.0086212158203125
1760554745030362400,8.9213623046875,-0.9981689453125,-0.025787353515625,0.00726318359375
1760554745040366300,8.931366455078125,-0.997833251953125,-0.025726318359375,0.0088958740234375
1760554745050370600,8.94137060546875,-0.997802734375,-0.0272674560546875,0.010223388671875
1760554745060375600,8.95137548828125,-0.9968719482421875,-0.0282440185546875,0.0106964111328125
1760554745070379500,8.961379638671875,-0.9983062744140625,-0.0276336669921875,0.0083770751953125
1760554745080384500,8.971384521484374,-0.99774169921875,-0.02783203125,0.0079345703125
1760554745090388500,8.981388427734375,-0.997833251953125,-0.0279083251953125,0.0077362060546875
1760554745100392400,8.991392333984376,-0.9971771240234375,-0.0268402099609375,0.0070648193359375
1760554745110397400,9.0013974609375,-0.9998779296875,-0.0247802734375,0.010162353515625
1760554745120401400,9.0114013671875,-0.9988861083984375,-0.023590087890625,0.010009765625
1760554745130405400,9.0214052734375,-0.9990081787109375,-0.0233306884765625,0.0090484619140625
1760554745140410400,9.031410400390625,-0.99853515625,-0.0240478515625,0.0080718994140625
1760554745150414600,9.04141455078125,-0.99853515625,-0.0247344970703125,0.0085906982421875
1760554745160418600,9.05141845703125,-0.9983062744140625,-0.025360107421875,0.0069427490234375
1760554745170423600,9.061423583984375,-0.9989776611328125,-0.0254364013671875,0.009368896484375
1760554745180427500,9.071427490234376,-0.9986114501953125,-0.0262451171875,0.0093994140625
1760554745190432500,9.0814326171875,-0.9978790283203125,-0.026092529296875,0.0106048583984375
1760554745200436500,9.0914365234375,-0.9985809326171875,-0.025787353515625,0.0100860595703125
1760554745210440400,9.1014404296875,-0.99609375,-0.0278778076171875,0.011322021484375
1760554745220445400,9.111445556640625,-0.99664306640625,-0.02960205078125,0.0098419189453125
1760554745230449400,9.121449462890626,-0.9982757568359375,-0.028472900390625,0.00958251953125
1760554745240453400,9.131453369140624,-0.9974365234375,-0.0279693603515625,0.0077972412109375
1760554745250458400,9.141458251953125,-0.9991455078125,-0.027313232421875,0.0111846923828125
1760554745260462600,9.151462646484376,-0.9990234375,-0.02532958984375,0.012542724609375
1760554745270467600,9.161467529296875,-0.9981842041015625,-0.0250244140625,0.00872802734375
1760554745280471600,9.171471435546875,-0.9985198974609375,-0.02392578125,0.0079498291015625
1760554745290475300,9.181475341796874,-0.9999237060546875,-0.0248870849609375,0.006866455078125
1760554745300480300,9.191480224609375,-0.9995574951171875,-0.026519775390625,0.0083770751953125
1760554745310484500,9.201484375,-0.99835205078125,-0.0272216796875,0.0084991455078125
1760554745320488400,9.211488525390624,-0.9972076416015625,-0.027099609375,0.0103607177734375
1760554745330493400,9.221493408203125,-0.999053955078125,-0.0270538330078125,0.0104522705078125
1760554745340497400,9.231497314453126,-0.998748779296875,-0.0263824462890625,0.009979248046875
1760554745350502400,9.24150244140625,-0.9981842041015625,-0.0270538330078125,0.0109405517578125
1760554745360506600,9.251506591796876,-0.997650146484375,-0.0275115966796875,0.01068115234375
1760554745370510300,9.26151025390625,-0.9964599609375,-0.0268402099609375,0.0108642578125
1760554745380515300,9.271515380859375,-0.9983978271484375,-0.027679443359375,0.00927734375
1760554745390519300,9.281519287109376,-0.9991302490234375,-0.0272979736328125,0.0094451904296875
1760554745400523500,9.2915234375,-0.9963226318359375,-0.0269012451171875,0.0078277587890625
1760554745410528500,9.301528564453125,-0.998291015625,-0.0270843505859375,0.008636474609375
1760554745420532500,9.311532470703124,-0.99951171875,-0.026031494140625,0.009002685546875
1760554745430537500,9.321537353515625,-1.0001220703125,-0.0247802734375,0.0095977783203125
1760554745440541400,9.33154150390625,-0.9990692138671875,-0.0240020751953125,0.00811767578125
1760554745450545700,9.341545654296874,-0.9984588623046875,-0.024932861328125,0.00732421875
1760554745460550700,9.351550537109375,-0.9997100830078125,-0.0252838134765625,0.009796142578125
1760554745470554400,9.361554443359376,-0.9973602294921875,-0.0266571044921875,0.0102996826171875
1760554745480558300,9.371558349609375,-0.998443603515625,-0.0264434814453125,0.0108642578125
1760554745490563300,9.381563232421875,-0.9986572265625,-0.0274505615234375,0.009613037109375
1760554745500567600,9.391567626953124,-0.9969482421875,-0.028564453125,0.0102996826171875
1760554745510571500,9.401571533203125,-0.9961395263671875,-0.028045654296875,0.010589599609375
1760554745520576500,9.411576416015626,-0.997161865234375,-0.027923583984375,0.0088348388671875
1760554745530580200,9.421580322265624,-0.99639892578125,-0.02764892578125,0.010650634765625
1760554745540585200,9.431585205078125,-0.9989776611328125,-0.0260162353515625,0.0098419189453125
1760554745550589400,9.44158935546875,-0.9987945556640625,-0.0263824462890625,0.0102691650390625
1760554745560593400,9.451593505859375,-0.9980316162109375,-0.02685546875,0.009521484375
1760554745570598400,9.461598388671876,-0.998260498046875,-0.0272674560546875,0.0092926025390625
1760554745580602400,9.471602294921874,-0.99859619140625,-0.02606201171875,0.0072174072265625
1760554745590606300,9.4816064453125,-0.9993896484375,-0.0232696533203125,0.0077362060546875
1760554745600611300,9.491611328125,-0.9979705810546875,-0.024749755859375,0.0089111328125
1760554745610615300,9.501615234375,-0.9986419677734375,-0.02484130859375,0.009521484375
1760554745620620500,9.51162060546875,-0.999725341796875,-0.026214599609375,0.0083160400390625
1760554745630624300,9.521624267578124,-0.99853515625,-0.0267333984375,0.0080413818359375
1760554745640628200,9.531628173828125,-0.9990692138671875,-0.0268402099609375,0.0091552734375
1760554745650633200,9.54163330078125,-0.99798583984375,-0.02685546875,0.00640869140625
1760554745660637400,9.551637451171874,-0.9991912841796875,-0.026580810546875,0.010406494140625
1760554745670641400,9.561641357421875,-0.99688720703125,-0.0266571044921875,0.0107421875
1760554745680646400,9.571646484375,-0.9978790283203125,-0.02532958984375,0.01153564453125
1760554745690650400,9.581650390625,-0.9979400634765625,-0.0257720947265625,0.0101470947265625
1760554745700655400,9.5916552734375,-0.9975128173828125,-0.027801513671875,0.007476806640625
1760554745710659300,9.601659423828124,-0.9964447021484375,-0.0276336669921875,0.0081329345703125
1760554745720663300,9.611663330078125,-0.9979400634765625,-0.0273590087890625,0.0081787109375
1760554745730668300,9.621668212890626,-0.9981536865234375,-0.0248870849609375,0.0114593505859375
1760554745740672300,9.63167236328125,-0.9972076416015625,-0.02630615234375,0.0107421875
1760554745750676500,9.641676513671875,-0.9983367919921875,-0.027191162109375,0.0110015869140625
1760554745760681500,9.651681396484374,-0.9989013671875,-0.02752685546875,0.0100860595703125
1760554745770685400,9.661685546875,-1,-0.0272064208984375,0.0079345703125
1760554745780689400,9.671689453125,-0.997161865234375,-0.02783203125,0.008270263671875
1760554745790694400,9.6816943359375,-0.996551513671875,-0.0261077880859375,0.0088043212890625
1760554745800698400,9.691698486328125,-0.9979400634765625,-0.026123046875,0.0098419189453125
1760554745810703400,9.701703369140626,-0.9990997314453125,-0.026611328125,0.0084228515625
1760554745820707300,9.711707275390625,-0.9997406005859375,-0.0262298583984375,0.0091552734375
1760554745830711300,9.721711181640625,-0.99835205078125,-0.0281982421875,0.00946044921875
1760554745840716300,9.73171630859375,-0.9975128173828125,-0.0268402099609375,0.0082550048828125
1760554745850720500,9.741720458984375,-0.9978179931640625,-0.027191162109375,0.008514404296875
1760554745860724500,9.751724365234375,-0.9976348876953125,-0.0259246826171875,0.009063720703125
1760554745870729500,9.7617294921875,-1.000091552734375,-0.02557373046875,0.0097503662109375
1760554745880733200,9.771733154296875,-0.9968719482421875,-0.025299072265625,0.01019287109375
1760554745890738400,9.781738525390624,-0.9985504150390625,-0.0251007080078125,0.0099334716796875
1760554745900742400,9.791742431640625,-0.9983978271484375,-0.02679443359375,0.0076751708984375
1760554745910746400,9.801746337890625,-1.000091552734375,-0.0276336669921875,0.009429931640625
1760554745920751400,9.81175146484375,-1,-0.027374267578125,0.0087432861328125
1760554745930755300,9.82175537109375,-0.9989471435546875,-0.0277099609375,0.0089874267578125
1760554745940759300,9.83175927734375,-0.9982452392578125,-0.0287017822265625,0.0089569091796875
1760554745950764500,9.8417646484375,-0.9972076416015625,-0.026611328125,0.0108795166015625
1760554745960768500,9.8517685546875,-0.9978179931640625,-0.027069091796875,0.0107574462890625
1760554745970773500,9.8617734375,-0.9984893798828125,-0.027099609375,0.0109710693359375
1760554745980777200,9.871777099609375,-0.9983367919921875,-0.0260467529296875,0.0109710693359375
1760554745990781200,9.88178125,-0.9992218017578125,-0.0255279541015625,0.0085906982421875
1760554746000786400,9.891786376953124,-0.999847412109375,-0.0246124267578125,0.0087890625
1760554746010790400,9.901790283203125,-0.999755859375,-0.0258331298828125,0.0090789794921875
1760554746020794400,9.91179443359375,-0.9983062744140625,-0.025146484375,0.0093994140625
1760554746030799400,9.92179931640625,-0.99774169921875,-0.0262603759765625,0.007171630859375
1760554746040803300,9.93180322265625,-0.9976043701171875,-0.0264129638671875,0.0074615478515625
1760554746050807600,9.9418076171875,-0.99749755859375,-0.0263214111328125,0.0080413818359375
1760554746060812500,9.9518125,-0.9982757568359375,-0.0256500244140625,0.009552001953125
1760554746070816300,9.961816162109375,-0.9980621337890625,-0.02642822265625,0.0120086669921875
1760554746080821200,9.9718212890625,-0.9990997314453125,-0.0262908935546875,0.0103607177734375
1760554746090825200,9.9818251953125,-0.99725341796875,-0.0267333984375,0.0088653564453125
1760554746100829400,9.991829345703126,-0.99810791015625,-0.026519775390625,0.00762939453125
1760554746110834400,10.00183447265625,-0.999114990234375,-0.0260772705078125,0.008697509765625
1760554746120838400,10.01183837890625,-0.9982147216796875,-0.025848388671875,0.0084075927734375
1760554746130842400,10.02184228515625,-0.9987335205078125,-0.0253753662109375,0.0088958740234375
1760554746140847400,10.031847412109375,-0.998626708984375,-0.0251007080078125,0.0094146728515625
1760554746150851600,10.0418515625,-0.9981231689453125,-0.0263671875,0.0091094970703125
1760554746160856600,10.051856689453125,-0.995849609375,-0.0265045166015625,0.008880615234375
1760554746170860300,10.0618603515625,-0.997406005859375,-0.02685546875,0.0087738037109375
1760554746180864300,10.0718642578125,-0.9977264404296875,-0.0272216796875,0.00958251953125
1760554746190869200,10.081869140625,-0.9974212646484375,-0.02655029296875,0.0091705322265625
1760554746200873500,10.09187353515625,-0.99810791015625,-0.0265655517578125,0.010101318359375
1760554746210877400,10.10187744140625,-0.9980010986328125,-0.0274658203125,0.0086212158203125
1760554746220882400,10.11188232421875,-0.99835205078125,-0.026397705078125,0.008331298828125
1760554746230886400,10.121886474609376,-0.9999847412109375,-0.0271453857421875,0.00811767578125
1760554746240891400,10.131891357421875,-0.9986572265625,-0.026641845703125,0.008209228515625
1760554746250895400,10.141895263671875,-0.9965972900390625,-0.0266876220703125,0.009674072265625
1760554746260899300,10.1518994140625,-0.998382568359375,-0.0248870849609375,0.0087890625
1760554746270904300,10.161904296875,-1.0009307861328125,-0.0262908935546875,0.0093231201171875
1760554746280908300,10.171908203125,-0.998992919921875,-0.0258941650390625,0.0096435546875
1760554746290912500,10.18191259765625,-0.998382568359375,-0.0246429443359375,0.0102081298828125
1760554746300917500,10.19191748046875,-0.998016357421875,-0.0254669189453125,0.010528564453125
1760554746310921500,10.20192138671875,-0.997894287109375,-0.026123046875,0.0090789794921875
1760554746320926500,10.211926513671875,-0.9976043701171875,-0.0269012451171875,0.0088653564453125
1760554746330930400,10.221930419921875,-1.0001373291015625,-0.0257110595703125,0.009552001953125
1760554746340934400,10.231934326171874,-0.99798583984375,-0.02587890625,0.0089111328125
1760554746350939400,10.241939453125,-0.9994354248046875,-0.0260467529296875,0.0080108642578125
1760554746360943400,10.251943359375,-1.0000152587890625,-0.0272216796875,0.009368896484375
1760554746370947300,10.261947265625,-0.9986572265625,-0.026275634765625,0.0098724365234375
1760554746380952300,10.271952392578125,-0.9976806640625,-0.02581787109375,0.007415771484375
1760554746390956300,10.281956298828124,-0.998046875,-0.0263824462890625,0.0084991455078125
1760554746400960500,10.29196044921875,-0.99835205078125,-0.0267181396484375,0.0079345703125
1760554746410965500,10.301965576171876,-1.0008544921875,-0.02703857421875,0.00775146484375
1760554746420969500,10.311969482421874,-0.9997406005859375,-0.0269012451171875,0.00946044921875
1760554746430974500,10.321974365234375,-0.9990692138671875,-0.0263519287109375,0.0092926025390625
1760554746440978200,10.331978271484376,-0.9972686767578125,-0.02581787109375,0.007049560546875
1760554746450982400,10.341982421875,-0.9972686767578125,-0.0259246826171875,0.0078582763671875
1760554746460987400,10.3519873046875,-0.9974517822265625,-0.0255889892578125,0.0086669921875
1760554746470991400,10.361991455078124,-0.998687744140625,-0.02642822265625,0.0088348388671875
1760554746480995300,10.371995361328125,-0.9992828369140625,-0.0245208740234375,0.0095367431640625
1760554746491000300,10.382000244140626,-0.9988555908203125,-0.0255584716796875,0.0087738037109375
1760554746501004000,10.392004150390624,-0.99853515625,-0.0239105224609375,0.0082550048828125
1760554746511009000,10.402009033203125,-0.997894287109375,-0.02545166015625,0.0106658935546875
1760554746521013000,10.412012939453126,-0.998321533203125,-0.026153564453125,0.009429931640625
1760554746531017000,10.422016845703125,-0.99810791015625,-0.0260009765625,0.01031494140625
1760554746541022000,10.43202197265625,-0.99755859375,-0.0272064208984375,0.0097198486328125
1760554746551026000,10.44202587890625,-0.9981842041015625,-0.027740478515625,0.007080078125
1760554746561030000,10.45202978515625,-0.9986114501953125,-0.0275115966796875,0.0079345703125
1760554746571035000,10.462034912109376,-0.9985809326171875,-0.02520751953125,0.0066680908203125
1760554746581038800,10.472038818359374,-0.9980316162109375,-0.025238037109375,0.0030517578125
1760554746591043800,10.4820439453125,-1.0002593994140625,-0.023040771484375,0.0031890869140625
1760554746601048000,10.492048095703124,-1.000762939453125,-0.02130126953125,0.0074920654296875
1760554746611052000,10.502052001953125,-1.00006103515625,-0.0207061767578125,0.0106201171875
1760554746621057000,10.51205712890625,-0.99981689453125,-0.0214996337890625,0.0106201171875
1760554746631060700,10.522060791015624,-0.998992919921875,-0.024169921875,0.0100860595703125
1760554746641065000,10.53206494140625,-0.997314453125,-0.0261383056640625,0.0101776123046875
1760554746651070000,10.542070068359376,-0.997344970703125,-0.0289459228515625,0.0119476318359375
1760554746661074000,10.552073974609375,-0.9972991943359375,-0.031524658203125,0.012359619140625
1760554746671079000,10.562078857421875,-0.99658203125,-0.032440185546875,0.01202392578125
1760554746681083000,10.572082763671874,-0.9956512451171875,-0.03228759765625,0.01397705078125
1760554746691087000,10.582087158203125,-0.9966278076171875,-0.0303497314453125,0.0112152099609375
1760554746701092000,10.592092041015626,-0.995574951171875,-0.0289459228515625,0.010467529296875
1760554746711096000,10.602095947265624,-0.9985504150390625,-0.0273895263671875,0.010498046875
1760554746721099800,10.612099853515625,-0.99951171875,-0.024017333984375,0.0080413818359375
1760554746731104800,10.622104736328126,-1.0002899169921875,-0.0214385986328125,0.007537841796875
1760554746741109000,10.63210888671875,-1.002105712890625,-0.020050048828125,-0.00164794921875
1760554746751114000,10.642114013671875,-1.0055694580078125,-0.0176849365234375,-0.020172119140625
1760554746761118000,10.652117919921874,-1.006805419921875,-0.0182342529296875,-0.0439605712890625
1760554746771122000,10.662121826171875,-1.008544921875,-0.020965576171875,-0.0624542236328125
1760554746781127000,10.672126953125,-1.009063720703125,-0.0233306884765625,-0.0677642822265625
1760554746791131100,10.682131103515625,-1.0091705322265625,-0.0251312255859375,-0.060699462890625
1760554746801135000,10.692135009765625,-1.0078125,-0.0253143310546875,-0.0518646240234375
1760554746811140000,10.70214013671875,-1.007171630859375,-0.0240936279296875,-0.0367431640625
1760554746821143800,10.712143798828125,-1.00714111328125,-0.0225830078125,-0.02142333984375
1760554746831148800,10.722148681640626,-1.0060577392578125,-0.0220489501953125,-0.00537109375
1760554746841153000,10.732153076171874,-1.0051116943359375,-0.0224761962890625,0.013580322265625
1760554746851157000,10.742156982421875,-1.003448486328125,-0.021148681640625,0.0417327880859375
1760554746861162000,10.752161865234376,-0.99871826171875,-0.019622802734375,0.0708770751953125
1760554746871166000,10.762166015625,-0.9941864013671875,-0.0203094482421875,0.09222412109375
1760554746881170000,10.772169921875,-0.9932708740234375,-0.021820068359375,0.1085968017578125
1760554746891175000,10.7821748046875,-0.9917755126953125,-0.0218505859375,0.1171112060546875
1760554746901179000,10.792178955078125,-0.99176025390625,-0.023590087890625,0.1177978515625
1760554746911184100,10.80218408203125,-0.992889404296875,-0.0277252197265625,0.116302490234375
1760554746921187800,10.812187744140624,-0.9907073974609375,-0.034912109375,0.1096038818359375
1760554746931191800,10.82219189453125,-0.992218017578125,-0.040863037109375,0.1030120849609375
1760554746941196800,10.83219677734375,-0.9921112060546875,-0.0438079833984375,0.0967864990234375
1760554746951201000,10.842200927734375,-0.991943359375,-0.0471649169921875,0.0984344482421875
1760554746961205000,10.852205078125,-0.9886932373046875,-0.049774169921875,0.107330322265625
1760554746971210000,10.8622099609375,-0.985595703125,-0.05194091796875,0.1177978515625
1760554746981214000,10.8722138671875,-0.9849853515625,-0.051666259765625,0.1273956298828125
1760554746991219000,10.882218994140626,-0.982940673828125,-0.0520782470703125,0.1420745849609375
1760554747001223000,10.892222900390625,-0.9810333251953125,-0.0530242919921875,0.156005859375
1760554747011227000,10.902226806640625,-0.9774322509765625,-0.05328369140625,0.1688079833984375
1760554747021231900,10.91223193359375,-0.9776611328125,-0.0548248291015625,0.177886962890625
1760554747031235800,10.92223583984375,-0.976776123046875,-0.0552978515625,0.182373046875
1760554747041240000,10.932239990234375,-0.974090576171875,-0.055908203125,0.1894989013671875
1760554747051245000,10.9422451171875,-0.9739532470703125,-0.0564727783203125,0.18963623046875
1760554747061249000,10.9522490234375,-0.975311279296875,-0.0546722412109375,0.19427490234375
1760554747071254000,10.96225390625,-0.974365234375,-0.0558319091796875,0.1975250244140625
1760554747081258000,10.972258056640625,-0.9734649658203125,-0.0540924072265625,0.199676513671875
1760554747091262000,10.982261962890625,-0.9726104736328125,-0.053009033203125,0.20562744140625
1760554747101267000,10.992266845703124,-0.9714508056640625,-0.054656982421875,0.2087554931640625
1760554747111271000,11.00227099609375,-0.9715728759765625,-0.0533905029296875,0.207122802734375
1760554747121275000,11.01227490234375,-0.9702606201171875,-0.0359649658203125,0.129150390625
1760554747131280000,11.02227978515625,-0.9692535400390625,-0.028289794921875,0.096435546875
1760554747141284000,11.0322841796875,-0.970001220703125,-0.0382080078125,0.1275787353515625
1760554747151289000,11.0422890625,-0.96575927734375,-0.051544189453125,0.1325531005859375
1760554747161293000,11.05229296875,-0.971954345703125,-0.049896240234375,0.11822509765625
1760554747171296800,11.062296875,-0.9590301513671875,-0.05389404296875,0.10638427734375
1760554747181302000,11.072302001953124,-0.9638671875,-0.042022705078125,0.1264190673828125
1760554747191306000,11.082305908203125,-0.9599456787109375,-0.1444549560546875,0.086883544921875
1760554747201310000,11.09231005859375,-0.969207763671875,-0.0453948974609375,0.3789215087890625
1760554747211315000,11.10231494140625,-0.9679412841796875,0.0426483154296875,1.5392303466796875
1760554747221319000,11.11231884765625,-0.9696197509765625,-0.0460052490234375,-0.1575164794921875
1760554747231324000,11.122323974609374,-0.9661865234375,-0.0143585205078125,-0.008270263671875
1760554747241328000,11.132328125,-0.9691619873046875,-0.024322509765625,0.220703125
1760554747251332000,11.14233203125,-0.97418212890625,-0.018218994140625,0.482147216796875
1760554747261337000,11.152337158203125,-0.9690093994140625,-0.0441741943359375,0.139556884765625
1760554747271340800,11.1623408203125,-0.9700927734375,-0.0191650390625,0.267547607421875
1760554747281344800,11.1723447265625,-0.9707794189453125,-0.0217437744140625,0.2456817626953125
1760554747291349800,11.182349853515625,-0.9690093994140625,-0.017242431640625,0.257843017578125
1760554747301354000,11.19235400390625,-0.9688568115234375,-0.0159759521484375,0.258209228515625
1760554747311359000,11.20235888671875,-0.9691619873046875,-0.0169525146484375,0.2550048828125
1760554747321363000,11.212363037109375,-0.9688568115234375,-0.018463134765625,0.2566680908203125
1760554747331367000,11.222366943359376,-0.9693756103515625,-0.0167694091796875,0.2488861083984375
1760554747341372000,11.232371826171875,-0.9720611572265625,-0.0168609619140625,0.2416229248046875
1760554747351376100,11.242376220703125,-0.9734039306640625,-0.016632080078125,0.2401275634765625
1760554747361379800,11.2523798828125,-0.9712677001953125,-0.01495361328125,0.2441558837890625
1760554747371384800,11.262384765625,-0.9706573486328125,-0.016876220703125,0.244476318359375
1760554747381388800,11.272388916015625,-0.9709625244140625,-0.0147705078125,0.2435760498046875
1760554747391393800,11.282393798828124,-0.9700927734375,-0.013092041015625,0.2439727783203125
1760554747401398000,11.29239794921875,-0.9705657958984375,-0.0121612548828125,0.2509307861328125
1760554747411402000,11.302402099609376,-0.9704742431640625,-0.011505126953125,0.2521514892578125
1760554747421407000,11.312406982421875,-0.96868896484375,-0.0096893310546875,0.25653076171875
1760554747431411000,11.322410888671875,-0.970672607421875,-0.010345458984375,0.2626495361328125
1760554747441415200,11.332415283203124,-0.93011474609375,-0.0094757080078125,0.3549652099609375
1760554747451420200,11.342420166015625,-0.9891510009765625,-0.0185546875,0.20086669921875
1760554747461423900,11.352423828125,-0.9498291015625,-0.0172882080078125,0.2872772216796875
1760554747471428900,11.362428955078125,-0.9774169921875,-0.0216827392578125,0.22625732421875
1760554747481432800,11.372432861328125,-0.95867919921875,-0.024169921875,0.26446533203125
1760554747491437000,11.38243701171875,-0.9681243896484375,-0.0295867919921875,0.24493408203125
1760554747501442000,11.392442138671875,-0.9632110595703125,-0.02947998046875,0.2531890869140625
1760554747511445500,11.402445556640625,-0.9624481201171875,-0.0269622802734375,0.2559051513671875
1760554747521449500,11.412449462890624,-0.9661102294921875,-0.025238037109375,0.2490081787109375
1760554747531454500,11.422454345703125,-0.963592529296875,-0.022552490234375,0.2572174072265625
1760554747541458700,11.432458740234376,-0.9672393798828125,-0.0194091796875,0.252777099609375
1760554747551463700,11.442463623046875,-0.964599609375,-0.01605224609375,0.2577362060546875
1760554747561467600,11.452467529296875,-0.9640045166015625,-0.0143890380859375,0.25518798828125
1760554747571471600,11.4624716796875,-0.9666900634765625,-0.0125579833984375,0.25592041015625
1760554747581476600,11.4724765625,-0.9662628173828125,-0.0107879638671875,0.2576141357421875
1760554747591480800,11.482480712890625,-0.965576171875,-0.010009765625,0.25665283203125
1760554747601484500,11.492484619140624,-0.965728759765625,-0.0092926025390625,0.255645751953125
1760554747611489500,11.502489501953125,-0.966888427734375,-0.0068511962890625,0.2532806396484375
1760554747621493500,11.512493408203126,-0.9683380126953125,-0.006866455078125,0.2526702880859375
1760554747631498500,11.52249853515625,-0.967529296875,-0.006011962890625,0.254150390625
1760554747641502700,11.532502685546875,-0.9683685302734375,-0.0029296875,0.251953125
1760554747651506700,11.542506591796876,-0.9683990478515625,-0.0005035400390625,0.25115966796875
1760554747661511700,11.55251171875,-0.9694976806640625,-0.000457763671875,0.251953125
1760554747671515600,11.562515625,-0.9680938720703125,0.0001220703125,0.254241943359375
1760554747681519600,11.57251953125,-0.9678955078125,0.0000152587890625,0.2561492919921875
1760554747691524600,11.582524658203125,-0.967498779296875,0.001983642578125,0.2557220458984375
1760554747701528600,11.592528564453126,-0.96856689453125,0.0030364990234375,0.25433349609375
1760554747711532500,11.602532470703125,-0.9705657958984375,0.00408935546875,0.2532806396484375
1760554747721537500,11.61253759765625,-0.9691162109375,0.005767822265625,0.2529144287109375
1760554747731541800,11.622541748046874,-0.9685516357421875,0.005645751953125,0.255218505859375
1760554747741546800,11.632546630859375,-0.968719482421875,0.0065155029296875,0.2543792724609375
1760554747751550700,11.64255078125,-0.9687042236328125,0.005859375,0.2530059814453125
1760554747761554700,11.6525546875,-0.968994140625,0.0083770751953125,0.2527313232421875
1760554747771559700,11.6625595703125,-0.9694671630859375,0.009674072265625,0.2533721923828125
1760554747781563600,11.672563720703126,-0.9677734375,0.0096893310546875,0.25384521484375
1760554747791567600,11.682567626953125,-0.970794677734375,0.009613037109375,0.2546539306640625
1760554747801572600,11.692572509765625,-0.97088623046875,0.0088043212890625,0.252471923828125
1760554747811576600,11.70257666015625,-0.969757080078125,0.0091400146484375,0.251983642578125
1760554747821581600,11.71258154296875,-0.9705963134765625,0.0079193115234375,0.2523345947265625
1760554747831585500,11.72258544921875,-0.9710693359375,0.009307861328125,0.254852294921875
1760554747841589800,11.73258984375,-0.9691314697265625,0.006317138671875,0.2527618408203125
1760554747851594800,11.7425947265625,-0.9677581787109375,0.0063629150390625,0.25390625
1760554747861598700,11.7525986328125,-0.9684295654296875,0.005035400390625,0.2533721923828125
1760554747871602400,11.7626025390625,-0.9693756103515625,0.0035247802734375,0.2527008056640625
1760554747881607400,11.772607421875,-0.96820068359375,0.002227783203125,0.2532806396484375
1760554747891611600,11.782611572265624,-0.9679718017578125,0.0015106201171875,0.25323486328125
1760554747901616600,11.79261669921875,-0.9681243896484375,-0.0000457763671875,0.25213623046875
1760554747911620600,11.80262060546875,-0.967681884765625,-0.0005645751953125,0.2536163330078125
1760554747921624600,11.81262451171875,-0.9665374755859375,-0.0011444091796875,0.254974365234375
1760554747931629600,11.822629638671875,-0.9671630859375,-0.002197265625,0.2544403076171875
1760554747941633800,11.8326337890625,-0.9664154052734375,-0.00335693359375,0.2547607421875
1760554747951637500,11.842637451171875,-0.96661376953125,-0.004058837890625,0.251953125
1760554747961642500,11.852642578125,-0.9659576416015625,-0.00177001953125,0.2528228759765625
1760554747971646500,11.862646484375,-0.9652252197265625,-0.00335693359375,0.2530364990234375
1760554747981651500,11.8726513671875,-0.9659423828125,-0.004180908203125,0.2519989013671875
1760554747991655700,11.88265576171875,-0.96649169921875,-0.0026092529296875,0.2529296875
1760554748001659600,11.89265966796875,-0.9660186767578125,-0.0041351318359375,0.253936767578125
1760554748011664600,11.90266455078125,-0.96575927734375,-0.0034332275390625,0.2539825439453125
1760554748021668600,11.912668701171874,-0.9666900634765625,-0.0023651123046875,0.2535247802734375
1760554748031672800,11.9226728515625,-0.9669952392578125,-0.0003814697265625,0.25384521484375
1760554748041677800,11.932677734375,-0.9669189453125,-0.000762939453125,0.253265380859375
1760554748051681500,11.942681640625,-0.9663543701171875,0.000701904296875,0.2534942626953125
1760554748061686500,11.9526865234375,-0.96771240234375,0.0019683837890625,0.252960205078125
1760554748071690500,11.9626904296875,-0.9680328369140625,0.001617431640625,0.2547454833984375
1760554748081694700,11.97269482421875,-0.9665069580078125,-0.0013885498046875,0.2534027099609375
1760554748091699700,11.98269970703125,-0.9675750732421875,-0.00091552734375,0.2529449462890625
1760554748101702700,11.99270263671875,-0.967437744140625,-0.00079345703125,0.25433349609375
1760554748111707600,12.002707763671875,-0.9669036865234375,-0.001922607421875,0.2537078857421875
1760554748121711600,12.012711669921876,-0.9666748046875,-0.0004119873046875,0.253814697265625
1760554748131716600,12.022716552734375,-0.9665985107421875,-0.0001373291015625,0.2545166015625
1760554748141720600,12.032720458984375,-0.968231201171875,-0.00018310546875,0.253173828125
1760554748151724500,12.042724609375,-0.966949462890625,0.0001068115234375,0.2530670166015625
1760554748161729500,12.0527294921875,-0.9653472900390625,0.0010986328125,0.2548828125
1760554748171733500,12.0627333984375,-0.9680023193359375,0.0025634765625,0.2545013427734375
1760554748181738500,12.072738525390625,-0.9686279296875,0.0023040771484375,0.2547454833984375
1760554748191742700,12.08274267578125,-0.9684295654296875,0.003082275390625,0.2534027099609375
1760554748201746700,12.09274658203125,-0.968994140625,0.001556396484375,0.2539825439453125
1760554748211751700,12.102751708984375,-0.966705322265625,0.0001220703125,0.2527618408203125
1760554748221755400,12.11275537109375,-0.9675750732421875,-0.0000152587890625,0.25250244140625
1760554748231759600,12.122759521484374,-0.9665069580078125,-0.0026092529296875,0.2540435791015625
1760554748241764600,12.1327646484375,-0.967071533203125,-0.0040130615234375,0.2547760009765625
1760554748251768600,12.1427685546875,-0.9658203125,-0.004638671875,0.254364013671875
1760554748261772500,12.1527724609375,-0.96527099609375,-0.0040740966796875,0.25323486328125
1760554748271777500,12.162777587890625,-0.9657440185546875,-0.006256103515625,0.2535552978515625
1760554748281781800,12.17278173828125,-0.9675750732421875,-0.004974365234375,0.2537689208984375
1760554748291786800,12.182786865234375,-0.965911865234375,-0.004058837890625,0.2529449462890625
1760554748301790700,12.192790771484376,-0.965301513671875,-0.0036163330078125,0.2527618408203125
1760554748311794400,12.20279443359375,-0.966400146484375,-0.002777099609375,0.252685546875
1760554748321799400,12.21279931640625,-0.9681243896484375,-0.002532958984375,0.2516021728515625
1760554748331803600,12.2228037109375,-0.9671783447265625,-0.0012054443359375,0.2530517578125
1760554748341807600,12.2328076171875,-0.966552734375,-0.0001220703125,0.2532958984375
1760554748351812600,12.2428125,-0.9690704345703125,-0.00048828125,0.252349853515625
1760554748361816600,12.252816650390624,-0.969146728515625,0.000244140625,0.2512359619140625
1760554748371821600,12.262821533203125,-0.9674072265625,-0.000396728515625,0.2541656494140625
1760554748381825800,12.27282568359375,-0.967620849609375,-0.0004730224609375,0.2523956298828125
1760554748391829800,12.282829833984374,-0.9662017822265625,-0.001129150390625,0.25311279296875
1760554748401834800,12.292834716796875,-0.9666748046875,-0.0030670166015625,0.253753662109375
1760554748411838500,12.30283837890625,-0.9670867919921875,-0.0029449462890625,0.2556610107421875
1760554748421842700,12.3128427734375,-0.9667205810546875,-0.0031890869140625,0.2539825439453125
1760554748431847700,12.32284765625,-0.968292236328125,-0.0017852783203125,0.254638671875
1760554748441851600,12.3328515625,-0.9677886962890625,-0.0006256103515625,0.255096435546875
1760554748451856600,12.342856689453125,-0.9664306640625,-0.0009307861328125,0.2549285888671875
1760554748461860600,12.352860595703126,-0.9673919677734375,-0.0005645751953125,0.2541656494140625
1760554748471864600,12.362864501953124,-0.969573974609375,-0.0010986328125,0.2528076171875
1760554748481870600,12.37287060546875,-0.96917724609375,0.0001220703125,0.252899169921875
1760554748491875600,12.38287548828125,-0.969512939453125,0.000213623046875,0.2539215087890625
1760554748501879800,12.3928798828125,-0.967315673828125,-0.000030517578125,0.2529754638671875
1760554748511884000,12.402884033203126,-0.967010498046875,-0.000213623046875,0.2537689208984375
1760554748521889000,12.412888916015625,-0.9668121337890625,-0.0029449462890625,0.2517852783203125
1760554748531892700,12.422892822265625,-0.9676361083984375,-0.0020751953125,0.252777099609375
1760554748541897700,12.432897705078124,-0.96826171875,-0.00189208984375,0.2521209716796875
1760554748551901700,12.442901611328125,-0.9686431884765625,-0.0030364990234375,0.2530670166015625
1760554748561906000,12.452906005859376,-0.967498779296875,-0.0040435791015625,0.2530364990234375
1760554748571911000,12.462910888671875,-0.965423583984375,-0.003662109375,0.2523345947265625
1760554748581915000,12.472914794921875,-0.9652862548828125,-0.005126953125,0.2529296875
1760554748591918800,12.4829189453125,-0.9654388427734375,-0.0066375732421875,0.2527618408203125
1760554748601923800,12.492923828125,-0.9648895263671875,-0.0069427490234375,0.25335693359375
1760554748611928000,12.502927978515626,-0.965789794921875,-0.006744384765625,0.254608154296875
1760554748621933000,12.51293310546875,-0.9659881591796875,-0.0057373046875,0.253326416015625
1760554748631936800,12.522936767578125,-0.9659576416015625,-0.0060882568359375,0.2535858154296875
1760554748641940700,12.532940673828126,-0.9642791748046875,-0.0054168701171875,0.2548980712890625
1760554748651945700,12.54294580078125,-0.9656219482421875,-0.00494384765625,0.254241943359375
1760554748661950000,12.552949951171875,-0.965057373046875,-0.0042266845703125,0.252471923828125
1760554748671955000,12.562954833984374,-0.96685791015625,-0.0033111572265625,0.2536163330078125
1760554748681959000,12.572958984375,-0.9660797119140625,-0.0023651123046875,0.253662109375
1760554748691963000,12.582962890625,-0.9673309326171875,-0.0029144287109375,0.25421142578125
1760554748701968000,12.5929677734375,-0.9667510986328125,-0.0017547607421875,0.2540740966796875
1760554748711971800,12.602971923828125,-0.96588134765625,-0.0014190673828125,0.254119873046875
1760554748721975800,12.612975830078126,-0.966827392578125,-0.000732421875,0.253753662109375
1760554748731980800,12.622980712890625,-0.9673919677734375,0,0.253692626953125
1760554748741984800,12.63298486328125,-0.966888427734375,-0.000244140625,0.25518798828125
1760554748751989800,12.64298974609375,-0.9669189453125,0.000274658203125,0.2532958984375
1760554748761994000,12.652993896484375,-0.96697998046875,-0.000091552734375,0.2537689208984375
1760554748771998000,12.662998046875,-0.969024658203125,0.0004730224609375,0.2536468505859375
1760554748782003000,12.6730029296875,-0.9692840576171875,0.0005950927734375,0.25213623046875
1760554748792007000,12.6830068359375,-0.96783447265625,0.000732421875,0.2540283203125
1760554748802011000,12.693010986328124,-0.9672393798828125,-0.0000457763671875,0.2539215087890625
1760554748812015900,12.703015869140625,-0.966064453125,0.0022430419921875,0.2539825439453125
1760554748822019800,12.713019775390626,-0.9672393798828125,0.0022735595703125,0.2527313232421875
1760554748832024800,12.72302490234375,-0.97003173828125,0.001220703125,0.252838134765625
1760554748842028800,12.73302880859375,-0.9690399169921875,0.0019989013671875,0.2536163330078125
1760554748852033000,12.743032958984376,-0.9677734375,0.0019378662109375,0.2527008056640625
1760554748862038000,12.7530380859375,-0.9685516357421875,0.001983642578125,0.25360107421875
1760554748872042000,12.7630419921875,-0.9668731689453125,0.00164794921875,0.2531280517578125
1760554748882046000,12.7730458984375,-0.9665679931640625,0.000274658203125,0.2531280517578125
1760554748892051000,12.783051025390625,-0.968109130859375,0.003387451171875,0.2543792724609375
1760554748902055000,12.793054931640626,-0.9679412841796875,0.00299072265625,0.2537384033203125
1760554748912060000,12.803059814453125,-0.96832275390625,0.002166748046875,0.25482177734375
1760554748922064000,12.81306396484375,-0.96661376953125,0.001617431640625,0.2540740966796875
1760554748932067800,12.82306787109375,-0.96661376953125,-0.0017547607421875,0.2534637451171875
1760554748942072800,12.83307275390625,-0.9666595458984375,0.000457763671875,0.254638671875
1760554748952076800,12.843076904296876,-0.9674530029296875,-0.000823974609375,0.2536773681640625
1760554748962081000,12.8530810546875,-0.9658050537109375,-0.00177001953125,0.25518798828125
1760554748972086000,12.8630859375,-0.9664306640625,-0.0011749267578125,0.2527008056640625
1760554748982089700,12.87308984375,-0.96624755859375,-0.0012054443359375,0.2533721923828125
1760554748992094700,12.8830947265625,-0.966461181640625,-0.0017547607421875,0.25506591796875
1760554749002098700,12.8930986328125,-0.9673004150390625,-0.0029449462890625,0.25311279296875
1760554749012103000,12.90310302734375,-0.9666595458984375,-0.0023193359375,0.2527313232421875
1760554749022108000,12.91310791015625,-0.9652252197265625,-0.001861572265625,0.2544403076171875
1760554749032111900,12.92311181640625,-0.9664154052734375,-0.0003814697265625,0.2536773681640625
