time,seconds_elapsed,z,y,x
1760554736176502500,0.06750244140625,0.0012210662275552748,0.014249328496307135,-0.006865867181494832
1760554736186507500,0.077507568359375,0.0003232406049966812,0.01986733277486637,-0.0115632494837977
1760554736196511500,0.087511474609375,0.006003039807081222,0.004210402502957731,-0.018261797274369745
1760554736206516500,0.0975166015625,0.015569325053691864,0.006621299569588154,-0.040125263169361276
1760554736216520400,0.1075205078125,0.009124386698007582,0.01714393569296226,-0.013650860279658809
1760554736226524700,0.117524658203125,0.00881166748702526,0.003812343096081167,-0.0018281470089219509
1760554736236529700,0.12752978515625,0.009389175114035605,0.00255845231115818,0.027313383597647768
1760554736246533600,0.13753369140625,0.017001988205313682,-0.004019318643957376,0.007944620595220477
1760554736256537600,0.14753759765625,0.008751461732387542,-0.014879114299826322,0.02031050996510312
1760554736266542600,0.15754248046875,0.023401918375492093,-0.01849670200878754,0.027860642216866835
1760554736276546600,0.167546630859375,0.016358429604768753,-0.01982627011211589,0.007419491609418764
1760554736286550500,0.177550537109375,0.014252397236227989,0.0029403825671412047,-0.0009987104474566877
1760554736296555500,0.187555419921875,0.0060094695478677745,0.016216409051883963,0.0030822295900899913
1760554736306559500,0.1975595703125,0.003009118688106537,-0.006963317940291017,0.013927448731334878
1760554736316563700,0.207563720703125,-0.0016378303349018097,0.006439348865114152,0.01099155967622064
1760554736326568700,0.217568603515625,0.016758242577314376,-0.008363320931326598,0.015657697456888855
1760554736336572700,0.22757275390625,0.015552958440780638,-0.016043427105154842,0.003648402972333133
1760554736346576600,0.23757666015625,0.010463526347279548,-0.022472199777327475,0.01707220389731228
1760554736356581600,0.24758154296875,0.010461772781610488,-0.009715703654661774,0.03812302910201251
1760554736366585600,0.257585693359375,0.019746318477392194,-0.011730294880084693,0.02852274112110026
1760554736376589600,0.267589599609375,0.025596213549375534,0.00383186978045851,0.014575592175452038
1760554736386594600,0.277594482421875,0.017070961788296698,0.00294635565020144,0.0011896847086027263
1760554736396598500,0.2875986328125,0.007502922976016998,-0.007999583919160067,-0.01001403814726509
1760554736406603500,0.297603515625,-0.005813070192933082,-0.00450817987313494,-0.02301067230189219
1760554736416607700,0.307607666015625,0.02246843691766262,-0.009272435132879763,-0.02244464505012147
1760554736426611700,0.31761181640625,0.015730068573355675,-0.008983224661648272,0.0014979652064852416
1760554736436616700,0.32761669921875,0.00914192235469818,0.009843695682194084,0.02370786991897039
1760554736446620400,0.337620361328125,0.016318682116270064,0.005041921423655003,0.017592282248660922
1760554736456624400,0.347624267578125,0.019003391155600548,0.012329722077958285,0.0019942334239836782
1760554736466629600,0.357629638671875,0.006575286737084388,-0.004488854118157178,-0.00931423758114688
1760554736476633600,0.367633544921875,0.01315349608361721,-0.009971505046635866,-0.0032480237442068754
1760554736486637600,0.377637451171875,0.017336919248104096,0.0016464702990837395,-0.0014757351083680987
1760554736496645400,0.387645263671875,0.0117944826900959,-0.002762834043148905,0.006077529815398156
1760554736506649600,0.397649658203125,0.02256020685434341,-0.006064597268588841,0.0043748358170501885
1760554736516653600,0.407653564453125,0.01372866562306881,-0.011688684228062629,0.0033341950571630146
1760554736526658600,0.417658447265625,0.011037526842951773,-0.013790862405393272,-0.0033591377021744847
1760554736536662500,0.42766259765625,0.010446575212478637,-0.0048145972074940795,0.0007885474286507814
1760554736546666500,0.43766650390625,0.03200549606978893,-0.009486516274977475,-0.009415012808190659
1760554736556671500,0.44767138671875,0.031876901254057885,-0.02887218474643305,-0.04483261887640692
1760554736566675500,0.457675537109375,0.033250527694821355,-0.053633500107936556,-0.07581244342657736
1760554736576680400,0.467680419921875,0.016668226206302643,-0.029988164898008107,-0.07169731799163855
1760554736586684400,0.477684326171875,0.001724339574575424,-0.00491917182682082,-0.02529196077263914
1760554736596688400,0.4876884765625,-0.018166940331459044,0.028903310537058857,0.021597974226064978
1760554736606693600,0.497693603515625,-0.005751695394515991,0.06899363939035684,0.05004828943177126
1760554736616697600,0.507697509765625,0.006205868902802467,0.06365341087356209,0.05263512758719734
1760554736626701600,0.51770166015625,0.010370587366819381,0.026345333149936048,0.022365506266150623
1760554736636706600,0.52770654296875,0.011691022315621375,-0.014871570314187555,-0.015012175228120758
1760554736646710300,0.537710205078125,0.015550035831332206,-0.0176724713454023,-0.014728910440485923
1760554736656714500,0.547714599609375,0.013277999246120453,-0.02246282916078344,-0.011002135869162157
1760554736666719500,0.557719482421875,0.0017383680999279022,0.002084478123858571,0.03184932826054282
1760554736676723500,0.567723388671875,0.021473580661416053,0.010613090885803103,0.05883777248645201
1760554736686727400,0.5777275390625,-0.0009819967746734618,-0.0159088044074364,0.05171640530708246
1760554736696732400,0.587732421875,0.023403087419271468,-0.012161982561927288,0.012647701985947788
1760554736706736600,0.597736572265625,0.03672317224144935,-0.04385081389797851,-0.01886885978942737
1760554736716740600,0.60774072265625,0.021024083328247067,-0.04579895229106769,-0.029556541148247194
1760554736726745600,0.61774560546875,0.02358604277074337,-0.01668150581298396,-0.022746185279963537
1760554736736749300,0.627749267578125,0.020913608691096305,0.01369458069037646,0.006564107755944132
1760554736746754300,0.63775439453125,0.0192886378377676,0.008251531119924039,0.013234233169630169
1760554736756758500,0.647758544921875,0.012569558715820313,0.021770481248758734,0.024516610752278938
1760554736766762500,0.657762451171875,0.008089782953262329,0.01810615005493164,0.009965221436321735
1760554736776767500,0.667767578125,0.013180384090542792,0.016006127302069215,-0.02028838946484029
1760554736786771500,0.677771484375,0.011235679763555526,0.012040584671963006,-0.02834351209667511
1760554736796775700,0.687775634765625,0.007638532054424285,0.012754231100343167,-0.02897502406639978
1760554736806780700,0.69778076171875,0.017352701339125632,0.024905929730273783,-0.020547697988152504
1760554736816784400,0.707784423828125,0.011802665996551514,0.017118088865652678,-0.016143910071253775
1760554736826788400,0.717788330078125,0.010885551151633262,0.02146572614852339,0.01479410289749503
1760554736836793300,0.72779345703125,0.018653262543678283,-0.010707947828713803,-0.006314717838447541
1760554736846797600,0.737797607421875,0.035998949620127674,-0.01991235922668129,-0.00019009747831150888
1760554736856801500,0.747801513671875,0.02207622272968292,-0.010748480768501758,-0.0009685253717470914
1760554736866806500,0.757806640625,0.021028174981474874,-0.016924867848493157,0.015634188717138023
1760554736876810500,0.767810546875,0.02373100419938564,-0.008509195675421506,0.00800162974577397
1760554736886815500,0.7778154296875,-0.00797989283800125,0.00046042058598250147,0.01380789573858492
1760554736896819700,0.78781982421875,0.006843582284450531,-0.004547324573434889,0.029113921080436554
1760554736906823400,0.797823486328125,0.010597966381907463,-0.010336575499363242,0.02273358152671717
1760554736916828400,0.807828369140625,0.004172901770472527,-0.022705844136420635,-0.01613450292209163
1760554736926832400,0.817832275390625,0.021837153276801108,-0.004370470169186592,-0.017355103358766062
1760554736936836600,0.827836669921875,0.019449965879321098,0.019931630182731894,-0.011003432777104898
1760554736946841600,0.837841552734375,0.0038917467415332794,0.012434680289775133,-0.012807029866660014
1760554736956845600,0.847845458984375,0.0031412206351757047,0.016846121790166944,0.010357700485782698
1760554736966849500,0.857849609375,0.0019400281518697738,0.013229830989148468,-0.01922425823151134
1760554736976854500,0.8678544921875,0.01120586914718151,-0.004199771511089056,-0.013281743839476256
1760554736986858500,0.8778583984375,0.006554243949055671,0.0033379122510552406,0.014904193942155688
1760554736996862500,0.887862548828125,0.014620646026730537,0.00384942370345816,-0.022301491986075415
1760554737006867500,0.897867431640625,0.009068857118487358,-0.0032903833149001,0.006534744664141908
1760554737016871400,0.907871337890625,0.008313654837012291,0.002615881586819887,0.011187895099073648
1760554737026875400,0.91787548828125,0.009658055183291435,0.0009243483033031225,0.015999268303019926
1760554737036880400,0.92788037109375,0.011754150679707526,-0.012121029497031121,-0.003991024131234735
1760554737046884600,0.937884521484375,0.0018827450066804885,-0.009807747585978358,0.010049164259573444
1760554737056889600,0.9478896484375,0.008471475747227668,-0.012461002041120082,0.010104209781903774
1760554737066893600,0.9578935546875,0.009676175361871719,-0.010990600694995373,-0.0013914543583989141
1760554737076897300,0.967897216796875,0.01582300755381584,-0.0061950552478432655,-0.00021777093652635812
1760554737086902300,0.97790234375,0.012989245432615279,-0.0036783049202524123,0.007042849449906498
1760554737096906500,0.987906494140625,0.013597732719779014,0.007659227782581001,0.011339678994147106
1760554737106910500,0.997910400390625,0.0017810381978750228,0.00794032801259309,0.011123122767172753
1760554737116915500,1.00791552734375,0.021088380736112595,-0.005437642742972821,0.020184755560429767
1760554737126919400,1.01791943359375,0.022431612038612363,0.019499997299816458,0.0035189861726947127
1760554737136923600,1.027923583984375,-0.002867079868912697,-0.0033595030283555386,-0.00933712526638992
1760554737146928600,1.0379287109375,0.0038601825594902035,0.011827745638880878,-0.013625570574775337
1760554737156932600,1.0479326171875,0.012383096233010291,0.012208853910956531,0.0195787524912972
1760554737166936300,1.057936279296875,0.01926116530895233,-0.00189308373760432,-0.0007282686087768524
1760554737176941300,1.06794140625,0.010424947902560234,0.001283445672970265,-0.016896655534161253
1760554737186945500,1.077945556640625,0.009371054935455321,-0.008168364614807069,-0.0015056005236692726
1760554737196950500,1.087950439453125,0.0032259763091802597,-0.01402543834624812,0.0000153710990678519
1760554737206954500,1.09795458984375,0.02387830371558666,-0.014292053393181412,-0.0060875397527590394
1760554737216958500,1.10795849609375,0.011755319723486899,-0.009992365171574055,-0.00047329833386465904
1760554737226963500,1.11796337890625,0.015505612167716025,-0.012077957540284841,0.019792166913114487
1760554737236967700,1.1279677734375,0.012366729620099067,-0.012386347636021674,0.005607820811262354
1760554737246971600,1.1379716796875,0.018505378505587578,-0.008131539735756813,-0.004848462944477796
1760554737256976600,1.1479765625,0.014021511089801788,-0.0075778148431330915,0.0057462337681092315
1760554737266980400,1.15798046875,0.006394084951281547,-0.007497625746391713,-0.004805144392559304
1760554737276984600,1.167984619140625,0.007592939347028732,-0.004707008647173643,-0.007410541117982938
1760554737286989600,1.177989501953125,0.028991116684675217,0.007309738491475582,-0.014761634533153847
1760554737296993500,1.18799365234375,-0.003183306211233139,0.002626549111306667,0.011578045194130391
1760554737306997500,1.19799755859375,0.009080547556281088,0.026564218331314622,-0.004826908699795604
1760554737317002500,1.20800244140625,0.005782090532779693,0.0020828158897347746,-0.0010495912513229996
1760554737327006500,1.21800634765625,0.011605682119727134,0.0054869252447970205,-0.005360695916088298
1760554737337010400,1.228010498046875,0.014587912800908088,0.004151566721498966,0.001715462148375809
1760554737347015400,1.238015380859375,0.02086860050559044,-0.01769124911110848,0.005742927566170692
1760554737357019400,1.248019287109375,0.017421674922108648,-0.0030032917355187236,-0.008539928740402682
1760554737367024400,1.2580244140625,0.007843699237704277,-0.01265961161945015,-0.002361550632724538
1760554737377028400,1.2680283203125,-0.001734276446700096,-0.0003797017662785947,0.007453640474192798
1760554737387032600,1.278032470703125,0.005455927318334579,-0.0003294328837655484,0.0021746862911153583
1760554737397037600,1.28803759765625,0.00994797804057598,-0.009999909157212824,-0.002706208485085517
1760554737407041500,1.29804150390625,0.011896189498901366,-0.005136869698110968,0.021046377358445896
1760554737417045500,1.30804541015625,0.005917115089297294,0.0028893830322660502,0.01633487519924529
1760554737427050500,1.318050537109375,0.0042670097947120665,-0.012679302700608968,0.005395465835370123
1760554737437054500,1.328054443359375,0.005165419939160347,0.0006881101283244788,-0.019084639698266983
1760554737447058400,1.338058349609375,0.016087795969843863,0.0096169742542319,0.0024661252520512787
1760554737457063400,1.3480634765625,0.0038163434177637097,0.016514259487297386,0.0013454597922042011
1760554737467067400,1.3580673828125,0.0033685996502637863,0.002555895027890801,-0.024834353198250753
1760554737477071600,1.368071533203125,0.01803074673116207,0.011401537849754095,-0.018051168464682996
1760554737487076600,1.37807666015625,0.0027589433193206787,-0.0029093115754425525,0.0012151570765767245
1760554737497077200,1.3880771484375,0.009637596917152404,0.007094360441435128,0.0019275248633231967
1760554737507081200,1.398081298828125,0.007237550038099288,-0.0015576960370875894,-0.0007154913255944848
1760554737517086200,1.408086181640625,0.000353051221370697,0.008021631354186683,0.0019647424680180846
1760554737527090400,1.41809033203125,-0.00009761515557765961,-0.0026619674845598635,0.006995320513751358
1760554737537095400,1.428095458984375,0.026239772149920463,0.00347947614621371,0.023327693228656424
1760554737547099100,1.43809912109375,0.017115969973802565,-0.0013500446357764303,0.0013508666196838021
1760554737557103000,1.44810302734375,0.02355330954492092,-0.012168741096276789,-0.011468620869750156
1760554737567108000,1.458108154296875,-0.003382628175616264,-0.006415803592745214,0.011497043246636167
1760554737577112300,1.4681123046875,-0.0030775077491998672,0.001153645280841738,0.007787475538440048
1760554737587116300,1.4781162109375,0.010691489884257315,0.011428772916551679,-0.003970319269923493
1760554737597121300,1.488121337890625,-0.005462941581010818,0.006418470473866909,-0.0005747037485707551
1760554737607125200,1.498125244140625,0.0066594578891992565,0.012491378913074731,0.0037513244906906035
1760554737617129000,1.50812890625,0.001575286492705345,0.0046804494338110085,-0.0008958985269535332
1760554737627134200,1.51813427734375,0.007410568517446517,0.0011223733597435057,0.014859149224031715
1760554737637138200,1.52813818359375,0.002915595185756683,-0.0017990122459828853,-0.006341167453955859
1760554737647142100,1.53814208984375,0.01742518205344677,0.004963759887218475,0.010038496735086664
1760554737657147100,1.548147216796875,0.017725626304745674,0.00177879144186154,-0.0023872056637890635
1760554737667151000,1.558151123046875,0.0017144027024507521,-0.0025870573511347175,0.005887587600713596
1760554737677156000,1.568156005859375,0.009193944802880287,-0.003478782026469707,0.010175128726800903
1760554737687160300,1.578160400390625,0.006951134312152862,0.0024434658956713974,-0.0010566603129263967
1760554737697164300,1.588164306640625,-0.0027776480197906493,0.006863273365609347,0.0032532113759778437
1760554737707169300,1.598169189453125,0.012184358790516853,-0.00962163216304034,0.015299148076493293
1760554737717173000,1.608173095703125,0.00485679238140583,0.017493132723122834,0.004780676671583205
1760554737727177200,1.61817724609375,0.007701660418510436,0.0039590032914653414,0.00214911345844157
1760554737737182200,1.62818212890625,0.016682839253544808,-0.0003232040723785758,0.016533366046566515
1760554737747186200,1.638186279296875,0.0030640637457370755,0.0019538192152045667,-0.0010490432620514183
1760554737757190100,1.648190185546875,0.006053893211483955,0.0036978498709388076,-0.0060351245789323
1760554737767195100,1.658195068359375,0.012189619487524032,0.002194423038046807,-0.003294758095918223
1760554737777199400,1.668199462890625,0.013388473883271216,-0.008171086294855922,-0.0015745010414160788
1760554737787203300,1.678203369140625,0.0068003276646137235,-0.0025899799605831504,0.0022682554592378438
1760554737797208300,1.688208251953125,0.012642623952031135,0.005865549298841506,0.011172323070606217
1760554737807212000,1.6982119140625,0.010405074158310889,0.0069622950269840654,-0.011064469648804516
1760554737817216300,1.70821630859375,0.01803425386250019,0.0014520071729086338,0.00997795305373147
1760554737827221200,1.71822119140625,-0.003819850549101829,-0.005617858148086816,-0.003790807117708027
1760554737837225200,1.72822509765625,0.02565466573834419,-0.007206661709491163,-0.00021412680787034332
1760554737847230200,1.738230224609375,0.01338613579571247,0.00542562351161614,-0.00010358823863789438
1760554737857234200,1.748234130859375,0.018919804525375367,0.004945749306492507,-0.0005210829983465374
1760554737867238400,1.75823828125,0.01069265892803669,0.00003782952604815364,0.006151554032834247
1760554737877243400,1.768243408203125,0.014138415467739104,-0.0003077507749199867,-0.005476623046491295
1760554737887247000,1.7782470703125,0.011148586001992224,-0.011168551077786833,-0.007044182890467345
1760554737897251000,1.7882509765625,0.03075169661641121,0.00883360532419756,0.008548367775185034
1760554737907256000,1.798256103515625,0.03464227431416511,-0.0017625344268046318,-0.012158338433271272
1760554737917260300,1.80826025390625,0.0066582888454198835,-0.010818586862646043,0.0003255238936282694
1760554737927264300,1.81826416015625,0.022070377510786054,-0.0046443369408138094,-0.00281653699176386
1760554737937269200,1.828269287109375,0.0015653496205806732,-0.009234989199321716,-0.006445276282401755
1760554737947273200,1.838273193359375,0.0006651859104633331,-0.0021288835211656985,0.0004901764034293592
1760554737957277200,1.848277099609375,0.006647182929515838,-0.0001971117409877479,0.0029153029248118398
1760554737967282200,1.8582822265625,0.006792144358158111,0.005102857830654829,0.005709317557513713
1760554737977286100,1.8682861328125,0.013375029879808426,0.022160229485016315,-0.00026488888072781264
1760554737987290000,1.8782900390625,0.003649754679203033,0.002423537352494895,0.008615003270609304
1760554737997295000,1.888295166015625,0.0013993454039096832,-0.005410645138192922,0.0031735702685080466
1760554738007299000,1.898299072265625,0.0024468086302280425,-0.0067531823209486894,-0.005965511675132438
1760554738017304000,1.908303955078125,0.005438391661643982,-0.005544372786767781,0.00024397395686246454
1760554738027308300,1.918308349609375,0.013818097472190856,0.0019465126915834843,-0.00320771913328208
1760554738037312300,1.928312255859375,0.0012467851907014846,0.0070913465004414315,-0.006055701576080173
1760554738047317200,1.938317138671875,0.00514087001979351,0.0027103184046223757,-0.001872954265028238
1760554738057321200,1.9483212890625,0.021459552136063573,-0.005233407141454517,0.010049502186290919
1760554738067325200,1.9583251953125,0.013676058652997015,0.004268690295144915,-0.00928566907378845
1760554738077330200,1.968330078125,0.015467618244886397,0.0005344174039550125,-0.013348680728999897
1760554738087334100,1.978334228515625,0.013217793491482733,-0.0038712336764670906,-0.002725671237381175
1760554738097338000,1.988338134765625,0.015012275692820548,0.00036329862074926494,-0.007360518830642104
1760554738107343000,1.998343017578125,0.011425064855813979,0.0005199322208762168,-0.008686451938468962
1760554738117347300,2.008347412109375,0.009628244566917419,0.010981978997122496,0.0008309983308892697
1760554738127352300,2.018352294921875,0.016814356678724288,-0.005193349125701934,-0.015372743035666644
1760554738137356300,2.028356201171875,0.007387772163748741,0.0058431548039428885,0.006989630558481439
1760554738147360000,2.038360107421875,0.023402502897381782,-0.004870071988087147,0.013267368254251777
1760554738157365200,2.048365234375,-0.006377133816480636,-0.008661518426612018,-0.0004292034638114273
1760554738167369200,2.058369140625,0.02100362506210804,-0.008131905061937868,0.005818175626313314
1760554738177373200,2.068373291015625,0.017407646396756172,-0.004838617403898388,0.0004596990667749196
1760554738187378200,2.078378173828125,0.008278583523631096,-0.0034803894616663453,0.019396125933388245
1760554738197382100,2.088382080078125,0.004987140762805938,0.008139394248649477,0.0009302026553545147
1760554738207386400,2.098386474609375,0.020547113466262815,-0.0022354674344882367,0.0025866006934084
1760554738217391400,2.108391357421875,0.007079144605994224,-0.0012260163973085581,0.0037706776451319453
1760554738227395300,2.118395263671875,0.006329787543416023,-0.0022730229659006,-0.008628776067635045
1760554738237399000,2.12839892578125,0.023237667724490166,0.002231996835768223,-0.003051076400000602
1760554738247404000,2.138404052734375,0.02323474511504173,-0.0006187529528513551,0.004660219496535137
1760554738257408300,2.148408203125,0.004680266770720482,-0.007235102352686226,0.0022341979260090735
1760554738267413200,2.158413330078125,0.020690905851125718,0.01894671079861,0.009931227835174649
1760554738277417200,2.168417236328125,0.023688334101438523,0.00047359059480950235,-0.004531140623614192
1760554738287421200,2.178421142578125,0.00857727420926094,0.004579856869857758,0.007743216271605342
1760554738297426200,2.18842626953125,0.011118190863728523,0.0030174846576526758,-0.0006982022640760988
1760554738307430100,2.19843017578125,0.011266659423708915,-0.004863258654810488,0.02146539735496044
1760554738317434400,2.208434326171875,0.01426233410835266,0.005659121740236878,0.01247587994984351
1760554738327439400,2.218439453125,0.019046645775437354,-0.0023023221256211397,0.011946348783560096
1760554738337443000,2.228443115234375,0.016948796713352202,-0.0010099990264512597,-0.010830149436276405
1760554738347447000,2.238447021484375,0.0001911386579275131,0.012083912357036024,0.008720628202706575
1760554738357452000,2.2484521484375,0.00258066414296627,0.014172098541632294,0.0004131017123814672
1760554738367456300,2.258456298828125,0.003471475502848625,-0.004310118284076452,-0.005236896006483584
1760554738377460200,2.268460205078125,0.015296353331208228,-0.0010874847094528377,-0.018226388034271075
1760554738387465200,2.27846533203125,0.02053425398468971,0.012290230317786335,0.014219243885297328
1760554738397469200,2.28846923828125,0.0030278233885765076,-0.0015238668327219784,0.009668138185888528
1760554738407474200,2.29847412109375,0.012452654337882995,0.006908354616351425,0.0029766411906108257
1760554738417478400,2.308478515625,0.02008651021718979,0.008200878644920886,-0.0061950278483796865
1760554738427482000,2.318482177734375,0.01260404550731182,-0.00979196549495682,0.001280568729294464
1760554738437487000,2.328487060546875,0.0022819734573364257,-0.02081540901362896,0.010617675729375333
1760554738447491000,2.338490966796875,0.0069184010863304135,0.0022020218226127325,0.0038392676356248556
1760554738457495300,2.348495361328125,0.004823474633693695,0.0033110973093658683,0.006960249200370162
1760554738467500300,2.358500244140625,0.004377484431862831,0.0003019786212593317,0.006539685700740665
1760554738477504300,2.368504150390625,0.006923661783337593,0.0006435586005449295,0.012156685332302004
1760554738487508200,2.37850830078125,0.0025859248399734496,-0.0021055026455782354,0.019935867966432125
1760554738497513000,2.388512939453125,0.013659692040085792,0.0016303228818811476,0.011367352452361956
1760554738507517200,2.39851708984375,0.00004091653227806091,0.00230144534278661,0.0034158454586286097
1760554738517521000,2.40852099609375,-0.002658405554294586,-0.00810032261358574,0.006300086524896323
1760554738527526000,2.41852587890625,0.024424831682443617,0.0073581076778471465,0.004955494382372126
1760554738537529900,2.42852978515625,0.019932780960202217,0.0046141792645677925,-0.0034989480316638946
1760554738547534800,2.438534912109375,0.022024784803390502,0.011577990395203233,-0.010901899498235433
1760554738557539000,2.4485390625,0.013791209465265273,-0.003551244474481791,-0.011325449539395049
1760554738567543000,2.45854296875,0.008703530937433243,0.022615791232790797,0.002350873975083232
1760554738577548000,2.468548095703125,0.016034604477882384,0.01497806289596483,-0.016038312538620085
1760554738587552000,2.478552001953125,0.012290741774439812,-0.002140665290504694,0.00827335935924202
1760554738597556200,2.48855615234375,0.009001052579283714,0.011081639979314058,-0.006567322626337409
1760554738607561200,2.498561279296875,0.028006197300553322,-0.0043477834133431315,-0.009160234329523518
1760554738617565000,2.50856494140625,0.023065818288922308,-0.0014525551621802151,-0.0007049516652710736
1760554738627569000,2.51856884765625,0.01005085389316082,-0.0014034005245193838,-0.010969877567375079
1760554738637574000,2.528573974609375,0.0040665187865495675,-0.0008020553641952574,0.005174206033814698
1760554738647578000,2.538578125,0.007813304099440574,-0.0002996953326277435,-0.0059549628816545006
1760554738657582000,2.54858203125,0.01215571721792221,0.013109638675581663,-0.0072906136658973985
1760554738667587000,2.558587158203125,0.014550503399968146,0.013431107448600231,-0.0066065038592554625
1760554738677591000,2.568591064453125,0.0013823942691087723,0.006731883804593235,0.005519886799482628
1760554738687596000,2.578595947265625,0.015747604230046272,0.01592312519373372,-0.011708749768557026
1760554738697600000,2.58860009765625,0.009162380620837211,0.007124993041716515,-0.002434634135244414
1760554738707604000,2.59860400390625,0.00646890375316143,-0.0072396689299494025,-0.002556406484544277
1760554738717609000,2.60860888671875,0.0034749826341867445,0.013737214255705475,-0.002460024304827675
1760554738727613000,2.618613037109375,0.012454407903552055,-0.0038258053658530113,0.005724633857654407
1760554738737617000,2.628616943359375,0.017394786915183067,0.008964118102379143,0.0008070055339485406
1760554738747622000,2.638621826171875,0.016797405543923376,-0.003163304602820426,0.009118112220847978
1760554738757626000,2.648626220703125,0.018144728499650955,0.010411613496951758,0.0002249039302114397
1760554738767630000,2.658630126953125,0.013513561567664145,0.003730583096761256,-0.005200326855760068
1760554738777635000,2.668635009765625,0.008428221127390861,0.009615987873543053,0.008441336337290703
1760554738787638800,2.678638671875,0.0064817632347345345,0.004304857587069273,0.014464916608901694
1760554738797643800,2.688643798828125,0.004836918637156486,-0.0061047648821957404,0.012431364954682066
1760554738807648000,2.69864794921875,0.013217793491482733,-0.002395936959516257,0.009202255973499269
1760554738817652000,2.70865185546875,0.020251345390081405,0.005269081243034452,-0.0006949143284466117
1760554738827657000,2.718656982421875,0.020699089157581327,-0.0007992606189101934,0.00686602244512178
1760554738837661000,2.728660888671875,0.019652210453152654,-0.0011238346644677222,-0.000501611112896353
1760554738847665200,2.7386650390625,0.024291560691595077,0.0012926153601147234,0.0053194414570927615
1760554738857670100,2.748670166015625,0.010224456894397735,-0.006872369987517595,0.011803104387968779
1760554738867674000,2.758674072265625,0.018449264404177664,0.004511814868636429,0.006766242731921375
1760554738877677800,2.768677734375,0.017094927185773847,0.008854045324027537,0.002165361340343952
1760554738887682800,2.778682861328125,0.024123802909255025,0.01945268755936995,0.006293574585719034
1760554738897687000,2.78868701171875,0.020682138022780416,0.006290697642043232,-0.0053422560770995916
1760554738907691000,2.79869091796875,0.0015244330883026121,0.016901633103378118,0.0005913443561177701
1760554738917696000,2.808696044921875,0.009009235885739326,0.01379011348672211,0.026116237101797012
1760554738927700000,2.818699951171875,0.014993570992350578,0.006786920193769037,-0.0032359679802320897
1760554738937705000,2.828705078125,0.016637831068038938,0.00609011530233547,0.011685834683850408
1760554738947709200,2.838709228515625,0.0057160395592451094,0.012780571117997169,0.00444464965024963
1760554738957713000,2.848712890625,0.004220832565426826,0.008734985521622001,-0.0012907430634368211
1760554738967718000,2.8587177734375,0.005723053821921348,0.0025571006042882797,0.017944931611232458
1760554738977721900,2.868721923828125,0.011559504890441894,0.0012406294445507227,0.01940906761335209
1760554738987726000,2.87872607421875,0.012310030996799469,-0.0022527656291611493,0.00035671361633576453
1760554738997731000,2.88873095703125,0.022335750448703763,-0.009397084425855427,-0.0009869378112722187
1760554739007735000,2.898735107421875,0.01485270121693611,-0.0014247721061110496,0.0010671999732498078
1760554739017739000,2.908739013671875,0.023081600379943848,0.00006952157225459813,0.004230550241842866
1760554739027744000,2.918743896484375,0.008417699733376503,0.00272688594693318,-0.009722489588474855
1760554739037748200,2.928748291015625,0.010213935500383376,-0.006280632905755192,0.002869417956471443
1760554739047752000,2.938751953125,0.01649929938018322,0.012227430747263133,-0.0038133568762335926
1760554739057757000,2.9487568359375,0.02547346395254135,0.004534757352806627,0.008564469526614993
1760554739067761000,2.958760986328125,0.013648586124181747,-0.004189030921366066,0.002665255420189351
1760554739077766000,2.968765869140625,0.0025724808365106583,0.012558598930388689,0.003185452502546832
1760554739087770000,2.97877001953125,0.0019739304214715955,0.013906670804787427,-0.004147484201425686
1760554739097774000,2.988774169921875,0.01184592061638832,0.00025552739733830096,0.0033840894803404808
1760554739107779000,2.998779052734375,0.013938508981466292,0.004677216297108679,0.0036706422036048023
1760554739117783000,3.008782958984375,0.011844751572608947,0.0036248942325823007,0.003033723406400531
1760554739127787000,3.018787109375,0.003613514322042465,-0.008572488436289131,-0.0015153912653215228
1760554739137792000,3.0287919921875,0.009148352095484733,-0.004754848110582679,-0.0027023634270299224
1760554739147796000,3.0387958984375,0.008849076887965202,-0.0011646415988914667,0.010609501556074246
1760554739157800000,3.048800048828125,0.01139583876132965,-0.006820438870880753,-0.004542684930935501
1760554739167805000,3.058804931640625,0.014244213929772376,0.008558441644627601,-0.006899184929206967
1760554739177809000,3.068808837890625,0.012895137408375739,0.0066837886128574605,-0.0024522702566348014
1760554739187813000,3.078813232421875,-0.0017705168038606642,-0.000016457944456487893,0.006041554319718852
1760554739197818000,3.088818115234375,0.01902677203118801,-0.0008347155247814953,0.005866079021804034
1760554739207822000,3.098822021484375,0.012739654585719108,0.0031134193127974868,0.01479295212002471
1760554739217827000,3.1088271484375,0.003312485548853874,0.0029162527728825807,0.0056187714635394514
1760554739227830800,3.118830810546875,0.015284662893414496,0.012229513106495142,-0.0020191395363770423
1760554739237835000,3.1288349609375,0.017225275567173955,0.006490110937971622,0.0003906341522466391
1760554739247840000,3.138840087890625,0.008543956461548805,-0.007945241649728268,0.018920608242973685
1760554739257844000,3.148843994140625,0.016773440146446227,-0.0004338248400017619,0.0025109690407756715
1760554739267848000,3.158847900390625,0.008992284750938415,0.005894501398690044,-0.0020215689554810524
1760554739277853000,3.16885302734375,0.02006371386349201,0.0037375060278922317,0.004802998101245612
1760554739287857200,3.178857177734375,0.015122750329971313,0.015024221858941018,0.011813370053656399
1760554739297861000,3.188861083984375,0.011975099954009055,0.009790358059760182,0.009323434667754918
1760554739307866000,3.1988662109375,0.01945639562010765,0.016248009766545144,0.0069489971539936956
1760554739317869800,3.208869873046875,0.01646656615436077,0.009873140972387045,0.00028320085555315013
1760554739327874000,3.2188740234375,0.021701544198393822,0.0010981705002486705,0.003896916106995195
1760554739337879000,3.228879150390625,0.011223404803872107,0.007370492235384881,0.011562911557080224
1760554739347883000,3.238883056640625,0.001945288848876953,0.002046283271629363,0.015407604286493733
1760554739357888000,3.248887939453125,0.03261982857584953,0.002952913255151361,-0.00685951050594449
1760554739367892000,3.25889208984375,0.01795709697306156,0.013065909131709486,0.008842062625288962
1760554739377896200,3.268896240234375,0.01780979745686054,0.010125088173151015,0.010913882196974008
1760554739387901200,3.278901123046875,0.007935469174385071,0.008690141732897609,0.0024674678257666526
1760554739397905200,3.2889052734375,0.020055530557036398,0.009113116385322063,-0.008881746181705966
1760554739407908900,3.298908935546875,0.02110240926146507,0.007471504924446344,0.0009528163459617644
1760554739417913900,3.308913818359375,0.003440495842695236,-0.0037676271715201435,0.003666925009712577
1760554739427918000,3.31891796875,0.027383681488037107,-0.004615494438819587,0.0014042773073539138
1760554739437922000,3.328922119140625,0.01586217052042484,0.0043724611968733364,-0.0032980003657750783
1760554739447927000,3.338927001953125,0.012720949885249137,0.001371288353204727,0.0068426507026888425
1760554739457931000,3.348930908203125,0.007634440401196479,0.008693977657798677,0.007573047336470335
1760554739467935000,3.35893505859375,0.00793196204304695,0.015000530456099658,0.011928703529015183
1760554739477940000,3.36893994140625,0.001793313157558441,0.008702654154598713,-0.0043599487751722335
1760554739487944000,3.37894384765625,0.011664134308695792,-0.005456183046661317,0.009822990820882841
1760554739497949400,3.388949462890625,0.02243395012617111,0.004675919389165938,0.007450754397362471
1760554739507953400,3.398953369140625,0.019438859963417054,-0.003512136306799948,0.00042902993387542663
1760554739517957400,3.408957275390625,0.0025298107385635375,-0.007586272144224494,0.009171376778045668
1760554739527962400,3.41896240234375,0.018540449818968772,0.0021621830025687814,0.002122316783061251
1760554739537966600,3.428966552734375,-0.010339023184776306,0.0037317886731587347,0.004236852118466049
1760554739547970600,3.438970458984375,0.02153553998172283,0.0016811032210476695,-0.007406065872265026
1760554739557975600,3.4489755859375,0.02497720486819744,-0.0064092277214862405,-0.0038520357856526967
1760554739567979300,3.458979248046875,0.009713000240921973,0.00736420862507075,0.000833336418448016
1760554739577983500,3.4689833984375,0.013158756780624389,-0.008717632528021931,-0.0021713983554858714
1760554739587988500,3.478988525390625,0.003582534661889076,0.006821260854788124,0.010649249044572933
1760554739597992400,3.488992431640625,-0.00405249026119709,0.01205634849667549,0.0062350219320505855
1760554739607997400,3.49899755859375,0.0068710548132658,0.0015983751073479651,0.010934303930494934
1760554739618001400,3.50900146484375,-0.0036059155374765393,0.007939506028685718,-0.0019276161948684602
1760554739628005600,3.519005615234375,0.0221294142216444,0.0024442696132697165,0.006634944502450525
1760554739638010600,3.5290107421875,0.006861702463030815,-0.0018655381435528397,0.00738982712351717
1760554739648014600,3.5390146484375,0.004615969362854957,0.0019765790362842378,0.0033582791856490075
1760554739658018300,3.549018310546875,0.017184359034895895,-0.000060096156783401964,0.007005951505620032
1760554739668023300,3.559023193359375,0.019727029255032537,0.013042930114921181,-0.013343958888109773
1760554739678027300,3.56902734375,0.018081600135564802,-0.003597878361493349,-0.004437014333065599
1760554739688031500,3.579031494140625,0.017935469663143157,0.011794044298678636,0.0026739410501439125
1760554739698036500,3.589036376953125,0.012999182304739952,0.007727014055475592,0.014260260882275179
1760554739708040400,3.59904052734375,0.007462006443738937,0.007721990820486098,0.0004658274134621024
1760554739718044400,3.60904443359375,0.02092822173833847,0.0036003808458335697,-0.0031028796524740754
1760554739728049400,3.61904931640625,0.025116321077942847,-0.001251662295218557,0.01915922103812918
1760554739738053600,3.6290537109375,0.02077741509079933,-0.0015475217029452322,0.011403547143749892
1760554739748058600,3.63905859375,0.021676409757137298,-0.0005504004243761301,0.0019680304036475715
1760554739758062300,3.649062255859375,0.015094693279266356,0.001767374998703599,-0.01982762181898579
1760554739768066300,3.65906640625,0.006717325556278228,0.013365860192663967,-0.0006416954370215535
1760554739778071300,3.6690712890625,0.007308277186751365,0.000018010580725967882,0.0015623265464324502
1760554739788075500,3.679075439453125,-0.005560556736588478,0.012762980662379414,-0.0000342310631647706
1760554739798079500,3.68907958984375,0.013147066342830657,0.007539820920303464,0.0009511267123743891
1760554739808084500,3.69908447265625,0.019582067826390267,0.004050316570419818,-0.00003643215340562165
1760554739818088400,3.70908837890625,0.006710311293601989,0.008193736518081278,0.004313123091915622
1760554739828092400,3.719092529296875,0.023619945040345192,0.006080635087937116,-0.01423779332214035
1760554739838097700,3.72909765625,0.019131985971331596,0.013685045677050948,0.00032092991690151393
1760554739848101400,3.739101318359375,0.010751111117005347,0.010696166059374809,0.004669179121125489
1760554739858106400,3.7491064453125,0.022419337078928948,-0.005007398099545389,-0.005540299399849027
1760554739868110300,3.7591103515625,0.023615853387117386,0.015097634155023841,-0.0012614804363343863
1760554739878114600,3.769114501953125,0.02107201412320137,0.006243515765760093,-0.001020483887847513
1760554739888119600,3.77911962890625,0.017031214299798012,0.00883415331346914,0.008131713265692815
1760554739898123500,3.78912353515625,0.013290858727693557,0.02123175299586728,0.002342106146737933
1760554739908127500,3.79912744140625,0.020023381853103636,0.006203494282625615,0.022495845514396203
1760554739918132500,3.809132568359375,0.018380290821194648,0.006751574885752051,0.009482589018531143
1760554739928136400,3.819136474609375,0.013591302978992461,0.012013313072547317,-0.004093452459247782
1760554739938140400,3.829140380859375,0.019871406161785125,0.006830375743005424,-0.00911515307878144
1760554739948145400,3.8391455078125,0.011641922476887702,0.004568422160390764,-0.003540659148385748
1760554739958149400,3.8491494140625,0.02929974424242973,0.0016708010227419435,-0.006769293205533176
1760554739968153600,3.859153564453125,0.029599603971838948,0.003738309745490551,0.004384772689174861
1760554739978158600,3.86915869140625,0.012694646400213241,-0.008114552068337798,0.0055006889086682345
1760554739988162600,3.87916259765625,0.005659340935945511,0.009124331899080424,-0.005399393091816455
1760554739998167600,3.88916748046875,0.02152326502203941,0.0030809418153017755,0.005295256863906979
1760554740008171500,3.899171630859375,0.0040092356413602825,-0.0008736775619909167,0.008738684449205175
1760554740018175500,3.909175537109375,0.013731588232517241,0.024881124082580208,0.002911658796155825
1760554740028180500,3.919180419921875,0.028096213671565055,0.0009317826910875737,0.01109255409897305
1760554740038184400,3.929184326171875,0.019269348615407942,-0.01823251638095826,-0.0037586949463933703
1760554740048188400,3.9391884765625,0.017023615515232085,-0.0014270736610516904,0.004178445595270023
1760554740058193400,3.949193359375,0.015521978780627249,0.007635006656777113,0.006983949736366048
1760554740068197400,3.959197265625,0.01656768844127655,-0.005593892750609666,-0.004000467813014984
1760554740078201600,3.96920166015625,0.006839490631222724,-0.001976743433065712,0.000366431292751804
1760554740088206600,3.97920654296875,0.0005541267514228821,0.007012673507351428,-0.009264324891660363
1760554740098209300,3.989209228515625,0.008190320718288421,0.0026614742942154407,-0.01820021241339855
1760554740108213500,3.999213623046875,0.02689209857881069,-0.009076766430307179,0.003877718216180801
1760554740118217500,4.009217529296875,0.00743921009004116,-0.0018753654178231952,0.005302070197183638
1760554740128222500,4.019222412109375,0.00175415019094944,0.009290701441932468,-0.014497065312834456
1760554740138226400,4.029226318359375,0.014628244811296463,-0.001365644063707441,-0.001856852513598278
1760554740148230700,4.039230712890625,0.010891396370530129,0.01663271650150418,0.0033302038686349985
1760554740158235600,4.049235595703125,0.023760814815759656,-0.018681228262837975,-0.0009593648177571594
1760554740168239400,4.0592392578125,0.019717092382907867,0.005874426725041121,-0.004133382610836997
1760554740178243300,4.069243408203125,0.012835516175627708,-0.009038863839022814,-0.011594932396849616
1760554740188248300,4.079248291015625,0.008946107521653176,0.006013451603241265,-0.009693437023926525
1760554740198252500,4.08925244140625,0.01448328338265419,0.005893241023365408,0.0075593110720627
1760554740208256500,4.099256591796875,0.030942250752449035,0.009849266906455158,-0.0018064922995399682
1760554740218261500,4.109261474609375,0.024207389539480206,0.006937178852036595,-0.0010955310185905545
1760554740228265500,4.119265380859375,0.015977321332693098,0.01500716112628579,-0.000705298725143075
1760554740238270500,4.1292705078125,0.011936521509289741,0.014308730533346532,-0.004680266770720482
1760554740248274700,4.139274658203125,0.01073708259165287,0.0015179668148979544,-0.017996579600078985
1760554740258278400,4.1492783203125,0.015671616384387015,-0.004291011724807322,0.0109946649487596
1760554740268283400,4.159283447265625,0.014471008422970772,-0.0014137940543703733,-0.0009308967750985174
1760554740278287400,4.169287353515625,0.011478840869665146,-0.0005387282528914511,-0.0071035301285795865
1760554740288291300,4.179291259765625,0.01462181507050991,0.01198693652227521,0.0036198892639018594
1760554740298296600,4.189296630859375,0.021653028881549834,0.006182433228287845,0.007696975110238417
1760554740308300500,4.199300537109375,0.01028349360525608,-0.007564005513489246,0.004242405076418072
1760554740318304500,4.209304443359375,0.013127777120471,-0.009379238241910934,0.005175247213430703
1760554740328309500,4.2193095703125,0.010734744504094123,-0.0017855865088291466,0.009720827354351059
1760554740338313200,4.229313232421875,0.009988310050964355,0.003210358614940196,0.0031993896963540464
1760554740348317400,4.2393173828125,0.02076221752166748,-0.00009134981157258153,0.0010503127705305815
1760554740358322400,4.249322509765625,0.018668460112810134,0.019014460538886488,0.009271348287491127
1760554740368326400,4.259326416015625,0.014475684598088264,0.003683656948804855,-0.009371694256272167
1760554740378331400,4.269331298828125,0.017016016730666158,-0.00455468589598313,0.00021675715637393294
1760554740388335400,4.27933544921875,0.0007049333989620208,0.004750829522591084,-0.008586096836533398
1760554740398339600,4.289339599609375,-0.0012432780593633651,-0.012949333547335117,0.015368888844456523
1760554740408344600,4.299344482421875,0.015517302605509757,-0.0014606654033996163,0.008684607041254639
1760554740418348500,4.3093486328125,0.003547463348507881,0.01710985076026991,0.0032904746464453636
1760554740428352300,4.319352294921875,-0.007974632140994071,0.011517236651293932,0.004496571633731946
1760554740438357200,4.329357177734375,0.010881459498405455,-0.004875259619858115,-0.0024560513826087115
1760554740448361500,4.339361572265625,0.015074235013127326,0.003729724580235779,0.018872704847482963
1760554740458365400,4.349365478515625,0.011183072793483734,-0.003980411405675113,0.0030664474990684536
1760554740468371500,4.359371337890625,0.028241759622097014,0.00996613475177437,0.005344082708004861
1760554740478375400,4.36937548828125,0.011779869642853736,0.006847180747333914,-0.006438472082279622
1760554740488380400,4.37938037109375,0.00010813654959201812,0.01206431260742247,0.009049823624454438
1760554740498384100,4.389384033203125,0.009085808253288268,0.006094736678525805,0.01952803608421236
1760554740508388400,4.399388427734375,0.01656710391938686,-0.0018815211639739572,0.000795835685962811
1760554740518393300,4.409393310546875,0.020459435182809828,-0.009097991881426423,0.007751609640615061
1760554740528397300,4.419397216796875,0.00549684385061264,-0.005119662834983319,0.0027397545616608112
1760554740538402300,4.42940234375,0.012528057661652565,-0.003471420703921467,-0.008617980678984895
1760554740548406300,4.43940625,0.03542319555878639,-0.006473068471625447,0.0048746111658867445
1760554740558410500,4.449410400390625,0.006397592082619667,0.0053708793833851815,-0.00943709677583538
1760554740568415500,4.45941552734375,0.011337386572360992,0.008924589809589087,-0.007130737795913592
1760554740578419500,4.46941943359375,0.021363106024265287,0.005756024509761482,0.002262291509332135
1760554740588423200,4.479423095703125,0.015683891344070434,0.0006027516661211848,0.008196467331284657
1760554740598428200,4.48942822265625,0.015379355439543723,-0.0009118724142201244,-0.012931131170364096
1760554740608432400,4.499432373046875,0.02091419321298599,-0.00932190029779449,0.015530774008436127
1760554740618436400,4.509436279296875,0.0041594577670097345,0.0030709684105589986,-0.006455587613862008
1760554740628441300,4.51944140625,0.006703881552815437,-0.0008614756675437092,0.014140744422143324
1760554740638445300,4.5294453125,0.026759412109851836,0.0063205630573444065,0.0020273776417598127
1760554740648449500,4.539449462890625,0.02511749012172222,-0.00221111844452098,0.0029049093949608503
1760554740658454500,4.54945458984375,0.027661329385638235,0.014566449887771159,0.001585068101203069
1760554740668458200,4.559458251953125,0.009707739543914795,0.007896287941467017,0.0016706274928059428
1760554740678463200,4.569463134765625,0.028864275434613226,-0.005065484962332993,0.01178020756957121
1760554740688467200,4.57946728515625,0.02317863101363182,-0.011985895342659205,0.0052927543795667584
1760554740698471400,4.589471435546875,0.010308628046512603,0.008999847002886235,0.007773858005041256
1760554740708476400,4.599476318359375,0.005369418078660965,0.00888296089125797,0.004140150278341025
1760554740718480400,4.60948046875,0.016895020699501037,0.0066775232688523825,-0.012963480803696439
1760554740728484400,4.619484375,0.0007335749715566634,0.00510508632035926,0.01019198853005655
1760554740738489300,4.6294892578125,0.0025309797823429105,0.008462068598065526,-0.0109349158518482
1760554740748493300,4.639493408203125,0.0116594581335783,-0.0012981683180667458,-0.0017196086005307734
1760554740758497300,4.649497314453125,0.015849311038851736,0.0025691746345721184,0.0012249386850744484
1760554740768502300,4.659502197265625,0.021080781951546668,0.014434402739629149,-0.017715853829402474
1760554740778506200,4.66950634765625,0.00611819061934948,0.0037640287086367604,-0.002274840463651344
1760554740788511200,4.67951123046875,0.008366846328973769,-0.003426522116269916,-0.0025748371903784573
1760554740798515200,4.68951513671875,0.008065233033895492,-0.001223349516186863,-0.0026908465191721916
1760554740808519400,4.69951953125,0.022130583265423772,0.0027843517552129924,-0.0022311839850153773
1760554740818524400,4.7095244140625,0.012106032857298851,-0.010381748081650584,-0.005742215180117636
1760554740828528400,4.7195283203125,0.002529226216673851,-0.0059514192176982755,0.001160741741908714
1760554740838532400,4.729532470703125,0.011356091272830963,0.0025236732587218284,0.010486852423939853
1760554740848537300,4.739537353515625,0.004176993423700332,0.014434841131046414,0.001270476593542844
1760554740858541300,4.749541259765625,0.014054828837513923,0.005550747728627175,0.008086257555615156
1760554740868546300,4.75954638671875,0.010613163951039313,-0.0008714125396683812,0.009746098792925477
1760554740878550300,4.76955029296875,0.0032809213668107983,0.006892261998075992,0.008218277304293588
1760554740888554200,4.77955419921875,0.01884030954837799,0.005838277699425816,-0.0033561602937988936
1760554740898559200,4.789559326171875,0.015844050341844558,0.0024201763516291976,0.003328660365520045
1760554740908563500,4.7995634765625,0.014944471153616905,0.009266553381364792,0.007355687391897663
1760554740918567400,4.8095673828125,0.018086860832571983,0.0068657941162586205,-0.006862323517538607
1760554740928572400,4.819572509765625,0.010156067833304404,0.008364727437123656,0.009884530016081408
1760554740938576100,4.829576171875,0.026915479454398154,0.0038282165186479685,0.01291944986572489
1760554740948580400,4.839580322265625,0.03245031722784042,-0.001959299107920378,0.0014888594514224677
1760554740958585300,4.84958544921875,0.021971593311429023,0.006657649524603039,-0.005764390479307622
1760554740968589300,4.85958935546875,0.009250058904290199,0.0089989336874336,0.0076213069249875835
1760554740978594300,4.86959423828125,0.011942366728186606,-0.0032484073366969824,0.005599600972188637
1760554740988598300,4.879598388671875,0.022715689677000044,0.00245124734332785,0.0046670693624299014
1760554740998602500,4.8896025390625,0.010744681376218795,-0.005633366244472563,0.0018221008606255054
1760554741008607500,4.899607421875,0.02121931363940239,0.00021004428779706358,0.0012261625277809798
1760554741018611500,4.909611572265625,0.014934534281492232,-0.007866513857711106,0.018894560486264526
1760554741028615200,4.919615234375,0.01942541595995426,0.009427698759827761,0.0033492190963588654
1760554741038620200,4.9296201171875,0.009399111986160278,0.011442381316795945,-0.012257917217072098
1760554741048624400,4.939624267578125,0.011195347753167151,-0.001991466078162193,0.00152090769065544
1760554741058628400,4.94962841796875,0.012395955714583396,0.0006886763839051127,0.005773742829542607
1760554741068633300,4.95963330078125,0.017034136909246444,0.011772745782323181,0.0005106894684955477
1760554741078637300,4.96963720703125,0.008802899658679962,0.0025175175125710667,-0.020477920687571167
1760554741088642300,4.979642333984375,0.011344985356926917,0.008586516961641609,0.0012426478717010468
1760554741098646500,4.989646484375,0.0034130233138799666,0.008871361785009503,-0.012103868299676105
1760554741108650500,4.999650390625,0.018973580539226532,-0.0020361454701051116,-0.002066723271459341
1760554741118655500,5.009655517578125,0.015831190860271453,0.000656874739844352,-0.003961204381706193
1760554741128659200,5.0196591796875,0.006703881552815437,0.004418711491394787,0.001960349420690909
1760554741138663200,5.0296630859375,-0.002874678653478622,0.010012567709386348,-0.0013267094259615986
1760554741148668400,5.03966845703125,0.0234627086520195,0.022103311666008083,-0.0002891374059952795
1760554741158672400,5.04967236328125,0.031544308298826214,0.012776168937515467,0.010326172836357728
1760554741168676400,5.05967626953125,0.007903320470452307,-0.00027662498429417606,0.0007113083408214152
1760554741178681300,5.069681396484375,0.009401450073719024,-0.002703231076709926,-0.019417424449743703
1760554741188685300,5.079685302734375,0.008949030131101607,0.0038504283504560586,-0.00385475746570155
1760554741198690300,5.089690185546875,0.018973580539226532,0.016154139204323292,0.01270068341535516
1760554741208694300,5.0996943359375,0.015085340929031372,0.0030401166145689784,0.003878101808670908
1760554741218698200,5.1096982421875,0.007904489514231682,-0.0025191432140767574,-0.0047020493442658335
1760554741228703200,5.119703125,0.005810147583484649,-0.0043741051646880805,0.006453304325230419
1760554741238707200,5.129707275390625,0.011496961048245428,-0.010551789152622223,0.002795348073262721
1760554741248711400,5.13971142578125,0.009700140759348868,-0.005403923136461526,-0.01034802847513929
1760554741258716400,5.14971630859375,0.015385785180330276,0.0007392557936720549,0.010871020302781835
1760554741268720400,5.159720458984375,0.01897708767056465,0.014106613823678343,0.005896401094831526
1760554741278724400,5.169724365234375,0.010599719947576523,-0.004122267561778426,-0.0001724978895392269
1760554741288729300,5.179729248046875,0.01059679733812809,-0.005768774393480271,-0.006365169384051114
1760554741298733300,5.1897333984375,0.019274024790525434,0.005395465835370123,0.010019280577963217
1760554741308738300,5.19973828125,0.006553074905276298,0.00576937718167901,-0.0053241450316738334
1760554741318742300,5.2097421875,-0.0034738135904073715,-0.0007572846407070755,0.0029446112176869065
1760554741328746200,5.219746337890625,0.02091594677865505,-0.0052880964707583186,0.008349858661554754
1760554741338751200,5.229751220703125,0.019565116691589356,-0.006778243696969002,0.008044519039429723
1760554741348755500,5.23975537109375,0.0037070378243923186,0.011783723834063857,0.016891477035544812
1760554741358759400,5.249759521484375,0.012531564792990684,-0.008593659088481217,0.0027257351694628595
1760554741368764400,5.259764404296875,0.01881634415090084,-0.003646229281555861,0.016028375666495412
1760554741378768400,5.269768310546875,0.021509236496686936,0.005773121775034815,0.0059210332125891
1760554741388773400,5.2797734375,0.019710078120231626,0.006347944254614412,0.0027795477159321307
1760554741398777300,5.28977734375,0.016866379126906392,-0.011733564549405127,0.010108109638886526
1760554741408781300,5.29978125,0.008189736196398735,0.009839969355147332,0.004797381211211905
1760554741418786300,5.309786376953125,0.014175824868679045,0.00025214813016355035,-0.010899269149731845
1760554741428790300,5.319790283203125,0.0004056581914424896,-0.0025280571728944776,0.004940771737275645
1760554741438794500,5.32979443359375,0.0008493103057146072,0.008137001362163573,-0.0018236352305859326
1760554741448799500,5.339799560546875,0.0017506430596113203,0.004852371934615076,0.008897628737427294
1760554741458803500,5.349803466796875,0.0023527006059885025,0.02535624904735014,0.018309435808379203
1760554741468807200,5.35980712890625,0.0059463411837816236,0.004458495512511581,-0.0009039813687093556
1760554741478812200,5.369812255859375,0.01252864218354225,-0.00696954675167799,0.0015766747321933508
1760554741488816400,5.37981640625,-0.0018371522992849348,-0.004557553706504404,0.01533534276788123
1760554741498820900,5.38982080078125,0.008639233529567717,0.013348781193699687,0.009515970698324962
1760554741508824800,5.399824951171875,0.016418050837516785,0.007573430928960442,0.0036123818108811973
1760554741518828800,5.409828857421875,0.015367665001749992,0.009455025158170611,0.023894323268625884
1760554741528833800,5.419833740234375,0.010727730241417884,-0.005111077669728547,-0.0006305986542720348
1760554741538838000,5.429838134765625,0.013571429234743117,-0.0022670133502222596,-0.0023461795336566864
1760554741548842000,5.439842041015625,0.022101357170939445,-0.005891925849113613,0.003632018093112856
1760554741558847000,5.449846923828125,0.006086041915416717,-0.0005148176543414593,-0.003033741672709584
1760554741568850700,5.4598505859375,-0.011724924585223197,0.00842153565827757,0.0055034745207987725
1760554741578855000,5.46985498046875,0.014460487028956413,-0.0003584580488502979,-0.002980139188794419
1760554741588860000,5.47985986328125,0.02642857272028923,0.0030526473025791344,-0.010448237446602433
1760554741598864000,5.48986376953125,0.013111410507559776,-0.0008821896620094775,-0.012123641579225658
1760554741608868900,5.499868896484375,0.012811550778150558,0.00922313436474651,-0.003609915859159082
1760554741618872800,5.509872802734375,-0.008292027527093886,0.021557916210312396,-0.002279626236623153
1760554741628876800,5.519876708984375,0.017446809363365172,0.003697630675230175,0.013709038473991676
1760554741638882000,5.529882080078125,0.0035310967355966566,-0.0018801329244859516,0.004537734761182219
1760554741648886000,5.539885986328125,0.0027858313262462612,0.0022239231271669268,-0.013704919421300291
1760554741658889700,5.5498896484375,0.0006903203517198563,-0.0026770189232192933,0.004792376242531463
1760554741668894700,5.559894775390625,0.0039823476344347,0.000022284897044301032,0.009406482441863045
1760554741678898700,5.569898681640625,0.004730535653233528,0.011568418849259614,0.013823732628533616
1760554741688903000,5.57990283203125,0.010866261929273605,0.011710987391415982,0.0035506599525921044
1760554741698908000,5.589907958984375,0.007871171766519545,0.0066972143500112,0.002061234245589003
1760554741708911900,5.599911865234375,0.006377133816480636,0.004824333150219172,-0.003626136341597885
1760554741718916900,5.609916748046875,0.007724456772208213,-0.000008603431563824415,0.013347329022129997
1760554741728920800,5.6199208984375,0.01011924295425415,0.009857888604328036,0.01592986546177417
1760554741738925000,5.629925048828125,0.014009236130118369,0.005688548764120787,-0.0017062833280768244
1760554741748930000,5.639929931640625,0.021341478714346884,0.0005855082703754306,0.005387839651340619
1760554741758933800,5.649933837890625,0.009815876093506813,0.0037087183248251674,-0.006528095727646723
1760554741768937700,5.659937744140625,-0.005296352842450142,-0.0005954451425001024,0.0054732346461620176
1760554741778942700,5.669942626953125,0.02193418391048908,0.0009010039603337645,-0.01165547607820481
1760554741788947000,5.679947021484375,0.010561141502857207,0.014837668044585734,0.00273377234544605
1760554741798951000,5.689950927734375,0.010109890604019164,0.0032665092489682136,0.0011065273366402833
1760554741808956000,5.699955810546875,0.009063011899590492,0.013088997746352105,0.0038363267598673697
1760554741818960000,5.7099599609375,0.006669979283213615,0.001983337570633739,-0.005357070053741335
1760554741828964900,5.71996484375,0.023580197551846503,0.010629183504078536,-0.011318024284765124
1760554741838968800,5.72996875,0.00457622187435627,0.010636343897227197,0.006650726593472063
1760554741848972800,5.739972900390625,0.006971592578291892,0.007585340562462807,0.02543950688401237
1760554741858977800,5.749977783203125,0.002482464465498924,0.01146335103958845,0.0013285451900213955
1760554741868981800,5.759981689453125,0.010560556980967521,0.0021052286509424447,0.0024822361366357653
1760554741878986000,5.769986083984375,0.011008300748467445,-0.005187613504659384,-0.0014089352161623537
1760554741888991000,5.779990966796875,0.022680033841729164,0.015488807163387536,0.008645581071963533
1760554741898995000,5.789994873046875,-0.005903671085834503,0.009405925319436938,-0.013925466836802661
1760554741908999000,5.7999990234375,0.009058335724473,0.0008528357033617794,-0.0015236659033223987
1760554741919004000,5.81000390625,0.009205050718784332,0.010640782610327006,-0.002060585791617632
1760554741929007900,5.8200078125,0.014885434442758558,0.018752466868143528,0.007965142793441191
1760554741939012900,5.830012939453125,-0.004119125756621361,0.012788169902563094,0.012471879628160968
1760554741949016800,5.840016845703125,0.015183540606498718,0.015358093455806373,0.020256131163053213
1760554741959020800,5.850020751953125,0.019375147077441215,0.006776617995463311,0.0005208272700197995
1760554741969025800,5.86002587890625,0.01862988166809082,-0.003521214662399143,0.010211780075915158
1760554741979030000,5.870030029296875,0.0035182372540235518,0.010476751155033708,-0.004421597568225116
1760554741989034000,5.880033935546875,0.012049918755888938,-0.006064104078244418,-0.011896299096755682
1760554741999039000,5.8900390625,0.017588848182559014,0.0012815459768287837,-0.005291758865723386
1760554742009043000,5.90004296875,0.0145960961073637,0.007260711717978119,0.012145013160817324
1760554742019046700,5.910046630859375,0.013700024050474166,0.01002486093537882,0.012451457894640043
1760554742029052000,5.920052001953125,0.018339958810806273,0.00537924535293132,0.011464264355041087
1760554742039056000,5.930055908203125,0.014748656320571898,0.0022343714559450744,-0.005564940650761127
1760554742049060900,5.940060791015625,0.0057721536606550215,0.00531571513004601,-0.011120592883368953
1760554742059064800,5.95006494140625,0.023730419677495954,0.005994253712426871,0.014464313820702955
1760554742069068800,5.96006884765625,0.02118131971657276,0.006619801732245832,-0.0006709489309694618
1760554742079073800,5.97007373046875,0.014893033227324486,0.011048614492546766,0.0010067841560579835
1760554742089078000,5.980078125,0.015042670831084251,-0.004330850544851273,0.017849307483341542
1760554742099081700,5.990081787109375,-0.0003682487905025482,0.004734846502169966,-0.0008659326469525695
1760554742109086700,6.000086669921875,0.00891103620827198,0.004676302981656044,0.0003726144383661449
1760554742119090700,6.010090576171875,0.010556465327739715,-0.000844232271797955,-0.004129656283790245
1760554742129095000,6.020094970703125,0.031354338684678074,-0.003609915859159082,-0.013399899459583683
1760554742139100000,6.030099853515625,0.008902852901816367,-0.002963051056675613,-0.003420128908101469
1760554742149103900,6.040103759765625,0.004115034103393554,-0.005934760343842208,0.01391975861522369
1760554742159108900,6.05010888671875,0.018033084818720818,0.006687003483250737,0.000028924700384959576
1760554742169112800,6.06011279296875,0.030004093119502067,0.01010271194456145,0.003876348243001848
1760554742179117000,6.070116943359375,0.01039630632996559,-0.007242737669870257,0.001524506153538823
1760554742189122000,6.0801220703125,0.014437690675258635,0.0015501337851397692,-0.0018900606634560972
1760554742199125800,6.090125732421875,0.02191898634135723,-0.005486413788143545,0.008651535888714715
1760554742209129700,6.100129638671875,0.014136661902070045,0.007905749889556318,0.006782207486033439
1760554742219134700,6.110134765625,0.025660510957241058,0.003791921362560242,-0.01386581820459105
1760554742229139000,6.120138916015625,0.007104279047250747,-0.002604081551171839,0.012432625330006703
1760554742239143000,6.130142822265625,0.00006838906109333039,0.007231138563621789,-0.0008410904666408896
1760554742249148000,6.14014794921875,0.009796002349257468,0.004952891433332115,-0.006221157803479582
1760554742259152000,6.15015185546875,-0.004122048366069793,0.012959635745640843,0.022835544063849373
1760554742269156900,6.160156982421875,0.013087445110082625,0.0002218260571360588,0.009119756188662722
1760554742279161000,6.1701611328125,0.020419103172421453,0.0005723930604755878,-0.0012693806149996817
1760554742289164800,6.180164794921875,0.026853520134091376,0.014339874590281396,0.002802828126819804
1760554742299169800,6.190169677734375,0.013237667235732078,0.02550782287986949,-0.0009849102509673685
1760554742309173800,6.200173828125,0.024758593681454655,0.008500537444930524,-0.007566517130983993
1760554742319178000,6.210177978515625,0.00949614261984825,-0.0020314144960604606,0.00405218886709772
1760554742329183000,6.220182861328125,0.001712064614892006,-0.00852413751622662,0.011031042303238063
1760554742339187000,6.23018701171875,-0.0008329436928033829,0.02084511003214866,0.011867164333816616
1760554742349191000,6.24019091796875,-0.00008592471778392792,0.009664192663133144,0.010553031261637806
1760554742359196000,6.25019580078125,0.009192191237211227,0.010057977753691374,0.00685590290990658
1760554742369199900,6.260199951171875,0.007992752319574355,0.016231204762216657,0.008326011995086447
1760554742379204900,6.270204833984375,0.025499767437577245,-0.0029419534697197377,0.004165257320133969
1760554742389208800,6.280208740234375,0.007691723546385765,0.006945964946690947,-0.0005116301834117621
1760554742399212800,6.290212890625,0.01756488278508186,0.008988430559728294,0.006165308563550934
1760554742409217800,6.3002177734375,0.01367372056543827,0.0039032727825455363,-0.0024102851452771573
1760554742419221800,6.3102216796875,0.02220131041407585,0.009783307264465838,-0.0032123953083995726
1760554742429226000,6.32022607421875,0.02758358797430992,-0.01177868233276531,-0.00693849402628839
1760554742439231000,6.33023095703125,0.025490999609231946,-0.0046694896483793855,0.0012038228318095206
1760554742449235000,6.34023486328125,0.023995208093523977,0.004886109807435423,0.009408035078132525
1760554742459238700,6.35023876953125,0.014869652351737022,0.004050718429218977,0.01224269224847667
1760554742469243600,6.36024365234375,0.01756196017563343,0.016821480539254842,0.008111044936999679
1760554742479248000,6.370247802734375,0.010082418075203894,0.0198351110056974,-0.005934641612833366
1760554742489252900,6.3802529296875,0.011727262672781943,-0.0034512546987272795,0.0028920499133877455
1760554742499257300,6.39025732421875,0.016212299132347105,0.013403835849184541,-0.0018966913336422293
1760554742509261000,6.400260986328125,-0.0020481647014617918,0.0195404571743682,-0.011355735079804434
1760554742519266000,6.41026611328125,-0.0005512041419744491,0.008158592139463872,-0.008357274783030152
1760554742529270300,6.420270263671875,0.015314473509788512,0.005162753058038652,0.008695311098359524
1760554742539274200,6.430274169921875,0.025642390778660772,0.0080723751607351,0.0011558920368552206
1760554742549279200,6.440279296875,0.015469956332445144,0.02053613541452214,0.012679731958871707
1760554742559283200,6.450283203125,0.023549217891693112,0.005525777684152126,0.005101907982584089
1760554742569288200,6.4602880859375,0.027440380111336708,0.01776387595590204,-0.004658621194493025
1760554742579292400,6.47029248046875,0.007542085942625999,-0.002976056668721139,-0.0062366202340926975
1760554742589296400,6.48029638671875,0.013379706054925918,-0.0021142704739235342,-0.01823742088493891
1760554742599301400,6.49030126953125,0.0032020109117031096,-0.002303491169400513,0.003682286975625902
1760554742609305000,6.50030517578125,0.0024526538491249084,0.010898684627842157,-0.001896216409606859
1760554742619309300,6.510309326171875,0.012625088295340538,0.00473804310625419,0.005503940311679616
1760554742629314300,6.520314208984375,0.012022446227073668,0.01701406223559752,-0.009767114181490615
1760554742639318300,6.530318359375,0.008733341553807257,-0.0014805026150308549,0.006147197518125176
1760554742649322200,6.540322265625,-0.0005406827479600906,-0.002157488561142236,0.008847241123905406
1760554742659327200,6.5503271484375,0.01262801090478897,0.02296829446488991,-0.0023203875052742657
1760554742669331200,6.560331298828125,0.019365794727206228,0.017334964753035455,-0.0036478275835979727
1760554742679336200,6.570336181640625,0.013383797708153724,0.012740640966407955,0.004770164410723373
1760554742689340400,6.58034033203125,-0.00023380875587463378,-0.005504917559213936,0.015687544605880975
1760554742699344100,6.59034423828125,0.009493804532289504,0.001463788942247629,-0.00025676037319935854
1760554742709349000,6.60034912109375,0.01936930185854435,-0.005085687500145286,0.0039657070268876845
1760554742719353000,6.61035302734375,0.003208440652489662,0.012187555394601077,0.015525431113038212
1760554742729357300,6.620357421875,0.012184358790516853,0.014509897394943981,0.007103383998107165
1760554742739362300,6.6303623046875,0.01338438223004341,0.011517985569965094,-0.009292573738610371
1760554742749366300,6.6403662109375,0.013985855254530905,0.00442028239397332,0.000397127825114876
1760554742759371300,6.650371337890625,0.00680091218650341,-0.0026381664838641882,-0.0005271200134884566
1760554742769375200,6.660375244140625,0.029693127474188803,0.01477081335345283,0.00012618366293609142
1760554742779379200,6.670379150390625,0.02041618056297302,0.00454962612837553,0.007489625103026628
1760554742789384200,6.68038427734375,0.019814707538485524,0.002450626288820058,0.007178495060931891
1760554742799388200,6.69038818359375,0.005750526350736617,0.005981449029780924,0.0006126611387822777
1760554742809392000,6.70039208984375,0.00874678555727005,0.012322543418500571,-0.004243720250669866
1760554742819397000,6.710397216796875,0.008448679393529892,0.009017985447775573,-0.0030615247287787495
1760554742829401300,6.7204013671875,0.01563186889588833,-0.00044567967457696795,-0.0076217544495593755
1760554742839405300,6.7304052734375,0.01637596526145935,0.010320263685379177,-0.01139003007505089
1760554742849410300,6.740410400390625,0.0050064299851655955,-0.005236457615066319,0.0034772111238911747
1760554742859414300,6.750414306640625,0.016979191851615904,0.01563950421307236,0.01224769721715711
1760554742869419300,6.760419189453125,0.02595627903342247,0.00872842791667208,0.003866447903495282
1760554742879423200,6.77042333984375,0.0208703540712595,0.0007189436580054461,0.009944744903873651
1760554742889427200,6.78042724609375,0.008897592204809188,-0.011204590505547821,0.002416230828873813
1760554742899432200,6.79043212890625,0.01398351716697216,0.0033987755928188562,0.0035070765391923484
1760554742909436200,6.800436279296875,0.004108019840717315,0.005712842955160885,0.0019843878834042697
1760554742919440400,6.8104404296875,0.012337503525614737,0.0009389248179271817,-0.01087058191136457
1760554742929445400,6.8204453125,0.01158756194114685,0.00040993250776082276,0.006624788434617221
1760554742939449300,6.830449462890625,0.013380875098705291,0.0028701303425244986,0.01255185866234824
1760554742949453300,6.840453369140625,0.01921674164533615,-0.007423336667474359,0.008740931205218657
1760554742959458300,6.850458251953125,0.011737199544906615,0.009270736366137861,0.006096773371985182
1760554742969462300,6.860462158203125,0.009494389054179191,0.0006841463392600417,-0.00821749185300432
1760554742979467300,6.87046728515625,0.006356091028451919,0.007283453272748738,-0.006953764660656452
1760554742989471200,6.88047119140625,0.016684592819213865,0.0011962057809345424,0.007776881079189479
1760554742999475200,6.89047509765625,0.004117372190952301,0.007251943889632821,-0.000007918444974347948
1760554743009480200,6.900480224609375,0.013846154522895813,0.00878176553910598,0.004729110881127417
1760554743019484200,6.910484130859375,0.0033738603472709652,0.0073306534153409295,-0.013131320784427225
1760554743029488400,6.92048828125,0.010855740535259246,-0.001192315057106316,0.007666333376802503
1760554743039493400,6.930493408203125,0.00008358663022518158,0.005775642525684088,0.024416721441224216
1760554743049497000,6.9404970703125,0.00906651903092861,0.004244560500886291,0.011410981531534343
1760554743059501000,6.9505009765625,0.025980828952789307,-0.008497486971318722,-0.006382220983551815
1760554743069506000,6.960506103515625,0.0006938274830579757,-0.00033259295523166654,-0.004405185289541259
1760554743079510300,6.97051025390625,0.012521043398976325,-0.004855258011445403,0.0017064659911673514
1760554743089515300,6.980515380859375,0.011024667361378668,-0.0002202734208665788,-0.007579486210411414
1760554743099519200,6.990519287109375,0.013117255726456641,0.01470943855503574,-0.004066345256613567
1760554743109523200,7.000523193359375,0.00847790548801422,0.014460834088828414,-0.010294891782104968
1760554743119528200,7.010528076171875,0.018798223972320557,0.0047255124182440334,0.001454573589330539
1760554743129532400,7.020532470703125,0.02149403892755508,0.012273626242857426,0.007008225661097094
1760554743139536100,7.0305361328125,0.013713468053936957,0.014988602556288241,-0.008711339784553273
1760554743149541000,7.040541015625,-0.003793547064065933,-0.0006214746329002082,0.012585751798795536
1760554743159545000,7.050545166015625,0.011319850915670395,-0.0009517112342640757,-0.004432255959557369
1760554743169550000,7.060550048828125,0.016407529443502426,0.0045933739385567605,0.004276535674883053
1760554743179554300,7.07055419921875,0.01969897220432758,0.0034332989169284698,0.004775342909339815
1760554743189558300,7.080558349609375,0.008476151922345162,0.007640705745201558,-0.001925743898190558
1760554743199563300,7.090563232421875,0.020894903990626334,0.023843908255640416,-0.014490297645330429
1760554743209567200,7.100567138671875,0.01341360832452774,0.00018651728173717857,0.0015233097102958708
1760554743219571500,7.110571533203125,0.017749007180333138,-0.00018198723709210752,-0.0011954385959543287
1760554743229576400,7.120576416015625,0.010865092885494232,0.0020004531022161246,-0.005190910573443398
1760554743239580200,7.130580078125,-0.0000637128859758377,0.003637351855356246,0.008093171353591605
1760554743249584000,7.140584228515625,0.001575286492705345,0.012480820986442267,0.01712229924988933
1760554743259589000,7.150589111328125,0.013984101688861847,0.013930015147756785,0.0067473279688972975
1760554743269593300,7.16059326171875,0.01667056429386139,-0.009477401386760174,0.014735924703162163
1760554743279598300,7.170598388671875,0.0265431390106678,0.0012594985418021678,0.01503446012516506
1760554743289602300,7.180602294921875,0.02235562419295311,-0.001360620828717947,0.007126600476913153
1760554743299606300,7.190606201171875,0.026100071418285367,-0.000252915315143764,0.00945758244143799
1760554743309611300,7.200611328125,0.007549100205302238,-0.008627269097138195,0.017586108236201107
1760554743319615500,7.210615478515625,-0.003810498198866844,0.006380732279364019,0.013453246215172111
1760554743329619200,7.220619140625,-0.005745265653729438,0.01777691810056567,0.0007397033182438463
1760554743339624200,7.230624267578125,0.002791676545143127,0.0016575944812968373,0.0067065393007826055
1760554743349628200,7.240628173828125,0.017765958315134046,0.0089688856090419,0.00870438945395872
1760554743359633200,7.250633056640625,0.017325228810310362,-0.0020404745853506026,0.006487562787858769
1760554743369637400,7.260637451171875,0.00027297172248363493,-0.0021711517603136598,-0.01963331395643763
1760554743379641300,7.270641357421875,0.013141805645823477,0.007847991820331662,-0.006338875032169744
1760554743389646300,7.280646240234375,-0.0012292495340108871,0.006696465431340039,0.013192869112780318
1760554743399650300,7.290650390625,-0.00018120178580284117,0.026154632883425802,0.00546075875707902
1760554743409654000,7.300654052734375,0.0004103343665599823,0.006149645203538239,0.013521945803519338
1760554743419659300,7.3106591796875,0.001600420933961868,-0.0006936996188946068,0.007152255507977679
1760554743429663200,7.320663330078125,0.014011574217677115,0.0010083367923274635,0.010254504972789435
1760554743439667200,7.330667236328125,0.005320902761816978,0.0016325513715855777,-0.0006957819781266152
1760554743449672200,7.340672119140625,0.009357026410102843,0.006960961586423218,0.01692568983240053
1760554743459676200,7.35067626953125,0.010396890851855278,-0.007710409980546683,0.00874723308184184
1760554743469681200,7.36068115234375,0.008300210833549499,0.007850183777417988,0.020512425745371727
1760554743479685400,7.370685302734375,0.02880699228942394,-0.005010686035174876,0.00025920805861242115
1760554743489689300,7.380689453125,0.030009353816509245,-0.022597506657429038,-0.00713504864485003
1760554743499695000,7.390695068359375,0.025682722789049147,-0.003573474572598934,-0.006861802927730604
1760554743509698800,7.40069873046875,0.01117839661836624,0.009980820864252745,0.013604527786746621
1760554743519702800,7.410702880859375,0.006999065107107162,0.0011193959513679146,0.0007174092880450188
1760554743529708000,7.4207080078125,0.02466273209154606,0.010369801915530115,0.009433744908124209
1760554743539712000,7.4307119140625,0.015838789644837377,0.014394545653276145,-0.0005430299686733633
1760554743549717000,7.440717041015625,0.004316694155335426,0.008017375304177402,-0.018491450444934887
1760554743559721000,7.450720947265625,0.003561491873860359,0.015061265933699905,-0.006957627985021099
1760554743569725000,7.460724853515625,-0.000339022696018219,0.011947572626266627,-0.0005006521316710859
1760554743579730000,7.47072998046875,0.00025017536878585813,0.032743582819681614,-0.0005136577437166124
1760554743589734000,7.48073388671875,0.011463643300533293,0.0096963048344478,-0.0009734755415003746
1760554743599737900,7.49073779296875,0.024620061993598938,0.005410151947848499,-0.01047859605224803
1760554743609742800,7.500742919921875,0.006802081230282783,-0.010598386507015676,-0.006588822072092443
1760554743619746800,7.510746826171875,0.01727437540590763,-0.02452233724016696,0.0030206081965006887
1760554743629751000,7.5207509765625,0.017127660411596298,0.0038435967508703467,0.02644319490068592
1760554743639756000,7.530756103515625,0.028057050704956052,0.002759984498936683,0.026377518386486914
1760554743649760000,7.540760009765625,0.008162848189473151,0.002809011272434145,0.0181094288574066
1760554743659765000,7.550764892578125,0.005929974570870399,-0.010554127240180969,0.00523973641754128
1760554743669769000,7.56076904296875,0.0030967969715595244,-0.0038120143025182187,-0.006237542682699859
1760554743679773000,7.57077294921875,0.015824176597595215,0.016606084222905337,-0.017994369376683608
1760554743689778000,7.58077783203125,0.018972411495447157,0.021194252263382077,-0.001044038293370977
1760554743699782000,7.590781982421875,0.00999590883553028,0.008103153891488909,-0.021807507057208568
1760554743709785900,7.600785888671875,0.015530162087082862,0.014617358091101049,-0.009464825032977386
1760554743719790800,7.610790771484375,0.007145195579528808,0.003915419878065586,-0.016564948494918644
1760554743729795000,7.620795166015625,0.010130933392047882,0.012819514888897538,-0.01887676910124719
1760554743739800000,7.630800048828125,0.033763737913966176,0.011911003475543112,0.017672608342720195
1760554743749804000,7.640803955078125,0.006816109755635261,0.011282368449494241,0.012407445222977547
1760554743759808000,7.65080810546875,0.012043489015102386,0.0034756950202398,-0.003583338379487395
1760554743769813000,7.66081298828125,0.011289455777406691,0.0031622999558225274,-0.003522767298668623
1760554743779817000,7.67081689453125,0.01308335345685482,-0.018366700687259433,0.009205973167391494
1760554743789821000,7.680821044921875,0.010542436802387237,0.0016284049194306134,0.0035003910700790583
1760554743799826000,7.690825927734375,0.004413140267133712,-0.01428940477836877,-0.0001491170139517635
1760554743809830000,7.700829833984375,0.020135610055923462,-0.016262951607350258,0.00956155427256599
1760554743819834000,7.710834228515625,0.00997018987238407,-0.0003105637865141034,0.01698138380870223
1760554743829839000,7.720839111328125,0.013272154027223586,0.007001987716555595,0.008588955513900145
1760554743839843000,7.730843017578125,-0.010815408524870871,0.004162161180749535,-0.010879258408164606
1760554743849848000,7.74084814453125,0.014029694396257399,0.0006765840873122215,0.0014081314985640346
1760554743859851800,7.750851806640625,0.018519407030940054,-0.0050091881978325545,-0.005276433432428166
1760554743869856000,7.76085595703125,0.013285598030686378,-0.0024302410879172382,-0.020177969626616686
1760554743879861000,7.770861083984375,0.015379939961433409,0.00860319410180673,-0.01062461692681536
1760554743889865000,7.780864990234375,0.0010118073910474776,0.004952617438696324,0.019519788845675064
1760554743899869000,7.790868896484375,0.017315291938185692,0.001117952912952751,0.0182002306797076
1760554743909874000,7.8008740234375,0.0005500350981950759,0.0054214587931521235,0.016331276736361904
1760554743919878000,7.8108779296875,-0.00005377601385116577,0.009519468696508555,0.002940729627013206
1760554743929883000,7.8208828125,0.015205167916417121,-0.0012634623308666049,-0.008923046306474133
1760554743939887000,7.83088720703125,0.012208324187994002,-0.006681468791607767,-0.016032549518113955
1760554743949890800,7.840890869140625,0.020287001225352284,-0.011542846016585825,-0.00857542017889209
1760554743959895800,7.850895751953125,0.0286649534702301,-0.0035118623121641575,0.00891984970238991
1760554743969899800,7.860899658203125,0.007115384963154793,0.008242653693724422,0.0010415266758762298
1760554743979904000,7.870904052734375,0.004874328038096428,-0.001000427480507642,0.005587828336004168
1760554743989909000,7.880908935546875,0.014304419684410095,0.0004326192636042833,0.012109631320182234
1760554743999913000,7.890912841796875,0.01580605641901493,0.0029240707531571386,0.007659839703934267
1760554744009917000,7.9009169921875,0.017604045751690865,0.008788925932254641,0.007113101674523204
1760554744019922000,7.910921875,0.010876198801398276,0.013935604638326913,0.0013521178618539124
1760554744029926100,7.920926025390625,0.012675357177853584,0.007830876288749277,-0.0025525614264886825
1760554744039931100,7.93093115234375,0.005045592951774597,0.013300850398745387,-0.0011935206335037946
1760554744049934800,7.940934814453125,0.016867548170685767,0.03452734269760549,-0.006729463518643751
1760554744059938800,7.950938720703125,0.0015963292807340621,0.018288009427860377,-0.013839359455928206
1760554744069943800,7.96094384765625,0.0036848259925842284,0.00750685023246333,-0.007129751415224745
1760554744079948000,7.970947998046875,-0.004105097231268883,-0.0006753419782966375,-0.015261446414608507
1760554744089952000,7.980951904296875,0.014887188008427619,0.018160857650544492,-0.008393588205426931
1760554744099956000,7.9909560546875,0.002008417212963104,0.01705240321829915,0.005164543156325817
1760554744109960000,8.0009599609375,-0.004739888003468513,0.011216354008577763,0.004736810130393132
1760554744119964000,8.0109638671875,0.004674421551823616,0.009184135794918984,0.021919780925801022
1760554744129969000,8.020968994140626,0.02456687050163746,0.0014492854928597808,0.022067792828055096
1760554744139972900,8.030972900390625,0.009303834918141364,-0.02104737287228927,0.02666789790149778
1760554744149977900,8.040977783203125,0.018148235630989072,-0.026690876918286085,0.023757225486030802
1760554744159982000,8.050982177734374,0.023102643167972562,-0.028783867142163216,0.0034024105883203445
1760554744169986000,8.060986083984375,0.016694529691338538,-0.023278785186167807,-0.01517795111592859
1760554744179991000,8.070990966796876,0.022410569250583646,-0.014211718165967613,-0.015616643927292898
1760554744189995000,8.0809951171875,0.02946925559043884,0.012068385994341223,-0.0024181579244788734
1760554744199999000,8.0909990234375,0.009440028518438339,0.01661892543816939,0.011497189377108589
1760554744210004000,8.10100390625,-0.0055097033321857445,0.02383265620926395,0.006400067167496308
1760554744220008000,8.111008056640625,0.013046528577804565,0.03495046348050237,-0.013967479347623884
1760554744230012000,8.121011962890625,0.0019698387682437896,0.020749869496747852,-0.0025137089871335775
1760554744240017000,8.131016845703124,0.024552257454395293,0.020572357505373656,-0.02660619430951774
1760554744250020900,8.141020751953125,0.015257774886488914,0.028120982786640523,-0.015182070168619975
1760554744260025900,8.15102587890625,0.01283843878507614,0.018526147298980503,-0.0047024420699104666
1760554744270030000,8.161030029296874,0.007581248909235,-0.005864398521371186,-0.0022565284888260064
1760554744280034000,8.171033935546875,0.011751228070259094,-0.011931096415501087,-0.00565228100749664
1760554744290039000,8.1810390625,0.018622282883524893,-0.007672671786043792,0.013410539584606885
1760554744300042800,8.191042724609375,0.02923895396590233,-0.013264080318622291,0.0032642259603366253
1760554744310047000,8.201046875,0.014127894073724745,-0.01846791430572048,0.007045415866328403
1760554744320052000,8.211052001953124,0.015483984857797622,-0.016415073429141194,0.022034073221543802
1760554744330056000,8.221055908203125,0.015651158118247986,-0.003604399433825165,0.054976685744663696
1760554744340061000,8.23106103515625,0.014780220502614974,-0.005484404494147747,0.06592889979118481
1760554744350065000,8.24106494140625,0.02917524107992649,-0.02463905895501375,0.0056678073701914395
1760554744360069000,8.251069091796875,0.024125556474924086,-0.011540489662718027,-0.008852611418766901
1760554744370074000,8.26107421875,0.02012391961812973,-0.015603537850547581,-0.006947663713432848
1760554744380077800,8.271077880859375,0.011630816560983658,-0.003841222130693495,-0.02294110506386496
1760554744390081800,8.281081787109375,0.008519406542181968,0.016283574270270763,-0.011088161051645874
1760554744400086800,8.291086669921874,0.00793897630572319,0.025452713425457477,0.007868998075742274
1760554744410091000,8.301091064453125,-0.004021510601043701,0.042971601644344624,0.00302075432697311
1760554744420096000,8.311095947265626,-0.0007347440153360367,0.03810618756506592,-0.014922378052817657
1760554744430100000,8.321099853515625,0.00029752164185047145,0.022551877417415378,-0.02887605720395222
1760554744440104000,8.33110400390625,-0.0030167174726724623,0.012080624421406536,-0.03998647575317882
1760554744450109000,8.34110888671875,-0.007233458384871483,0.02849376162178814,-0.0007781447656452655
1760554744460113200,8.351113037109375,-0.010564648634195328,0.020081724444217977,-0.005362897006329148
1760554744470116900,8.361116943359375,0.004057166436314583,0.02811731125852093,0.02728959173010662
1760554744480121900,8.371121826171875,0.0008756137907505035,0.0017317008971236645,0.024215527180163187
1760554744490126800,8.381126953125,0.023738602983951567,-0.02797514457516372,0.007597231929656118
1760554744500130300,8.39113037109375,0.0267173265337944,-0.03620260069975629,0.010673561501922085
1760554744510134500,8.401134521484375,0.03973930519223213,-0.04941538922255859,-0.004306748150056228
1760554744520139500,8.411139404296875,0.03796002056002617,-0.044248270516656335,0.01627987534268759
1760554744530143500,8.4211435546875,0.0313970087826252,-0.022600867658294735,0.02181116031901911
1760554744540147500,8.4311474609375,0.022443302476406097,-0.007867116645909845,0.011881850446294992
1760554744550152400,8.44115234375,0.016031097346544263,0.027792097892146556,0.015240768952760844
1760554744560156400,8.451156494140625,-0.008351064237952233,0.029095472108293323,0.006959874741034582
1760554744570161400,8.461161376953125,-0.0041559506356716154,0.021711755065154284,0.019824799674237146
1760554744580165400,8.471165283203124,0.007816226708889007,0.02280559645015746,0.0021341898839455095
1760554744590169300,8.48116943359375,0.013049451187252998,0.006475644021201879,0.002069499750435352
1760554744600174300,8.49117431640625,0.01499298647046089,0.012132519005425274,-0.020655779738817364
1760554744610178600,8.501178466796874,0.013793547552824019,-0.0048671493786387144,-0.006684364001592621
1760554744620182500,8.5111826171875,0.019928104785084725,-0.0006760908969677984,-0.000170068470435217
1760554744630187500,8.5211875,0.010051438415050505,0.005288735791575163,0.004701519621303305
1760554744640191500,8.53119140625,0.012594108635187149,0.006214161807112395,0.0050445152395404876
1760554744650196500,8.541196533203125,0.0018196166425943374,0.0020526764797978102,-0.0006098755266517401
1760554744660200400,8.551200439453124,0.012595277678966522,-0.005638864403497428,-0.0085074603760615
1760554744670204400,8.561204345703125,0.00990180081129074,-0.005961557019222527,0.011592448178818448
1760554744680209400,8.57120947265625,0.010051438415050505,0.009419825980626045,0.004649040515394881
1760554744690213400,8.58121337890625,0.011993804654479027,-0.006924502033554017,0.02099829129986465
1760554744700217600,8.591217529296875,0.004212649258971214,0.0014194566101767123,0.023551144987298173
1760554744710222600,8.60122265625,0.012744915282726288,-0.013679912844207137,0.00972435275199823
1760554744720226600,8.6112265625,0.015595044016838073,-0.016106153610441834,-0.006472739678062498
1760554744730230500,8.62123046875,0.009919336467981339,-0.0040151173928752535,0.004762346430448815
1760554744740235500,8.631235595703124,0.023249358162283896,-0.008906743625644593,-0.011655859670694917
1760554744750239500,8.641239501953125,0.0032090251743793485,0.016872553139366208,-0.004910595794720575
1760554744760244500,8.651244384765626,0.0060620765179395675,0.015629293346311895,0.018864494141563774
1760554744770248400,8.66124853515625,0.0008265139520168304,0.025031656735483555,0.015382405913155525
1760554744780252400,8.67125244140625,-0.0020201076507568357,0.026365279959421603,-0.003483768728841096
1760554744790257400,8.68125732421875,0.009497311663627625,0.005838295965734869,0.002840018332051113
1760554744800261400,8.691261474609375,0.0027571897536516187,0.014361154840327798,0.01254379408690147
1760554744810266400,8.701266357421876,0.005288754057884216,0.003204385531879961,-0.0012291125366929918
1760554744820270600,8.7112705078125,0.00767184980213642,0.007425272896233946,-0.0019529058997519314
1760554744830274300,8.7212744140625,0.013645663514733314,0.008400693799648433,-0.0024349629288073628
1760554744840279300,8.731279296875,0.027557284489274022,-0.011546773273032157,-0.00907869352591224
1760554744850283300,8.741283203125,0.006909048736095428,0.007391388892941176,-0.00026324491291306913
1760554744860287500,8.75128759765625,0.015292261677980422,-0.0068132602114230395,0.0034706626520957795
1760554744870292500,8.76129248046875,0.019787235009670258,-0.004480104556120932,-0.0003656458414625376
1760554744880296400,8.77129638671875,0.01320844114124775,0.002702938815765083,0.0015648655633907764
1760554744890300400,8.781300537109376,0.0015425532668828963,-0.001058971001021564,0.013397543105715885
1760554744900305400,8.791305419921875,-0.0036906712114810943,0.0024229710969142612,0.004220083646755665
1760554744910309600,8.8013095703125,0.011877484798431396,-0.0010250504651106893,0.007286549412133172
1760554744920314600,8.811314697265624,-0.008023147457838059,0.010711107900179921,0.010574740769946947
1760554744930318300,8.821318359375,0.003952537018060684,0.0169028752123937,0.005312253664480522
1760554744940322300,8.831322265625,0.018625205492973328,0.010603738535568117,0.0028648239797446876
1760554744950327300,8.841327392578124,0.0008282675176858902,-0.0015015271367505192,0.00463218984529376
1760554744960331500,8.85133154296875,0.0171492877215147,-0.003507167870737612,-0.01780334031661041
1760554744970335500,8.86133544921875,0.012966449078917502,0.006684902857709675,-0.011553860600944607
1760554744980340500,8.871340576171875,0.009380407285690307,0.01379740174403414,-0.00416280050156638
1760554744990344400,8.881344482421875,0.006837737065553665,0.009537735005561262,-0.005860571729624644
1760554745000349400,8.891349365234374,0.004589665877819061,0.0203137613681145,-0.01212929500187747
1760554745010353700,8.901353759765625,0.009518938973546028,0.018674871587287634,-0.009795107300113886
1760554745020357400,8.911357421875,0.010558218893408775,0.006648552902694792,-0.0076248871215619145
1760554745030362400,8.9213623046875,0.01638765569925308,0.004147365470416844,-0.01238983650105074
1760554745040366300,8.931366455078125,0.018476736932992933,0.011588822316471487,0.005796886243112385
1760554745050370600,8.94137060546875,0.02116436858177185,-0.008241557715181261,0.011045070828590542
1760554745060375600,8.95137548828125,0.022362638455629347,-0.018735296537633984,0.01862722392012365
1760554745070379500,8.961379638671875,0.016534370693564414,-0.017320132510084657,0.0030725301799830046
1760554745080384500,8.971384521484374,0.011007716226577757,-0.008509670599456875,-0.003196768481004983
1760554745090388500,8.981388427734375,0.0198462717205286,-0.013803758419584483,-0.015823939135577527
1760554745100392400,8.991392333984376,0.02045534352958202,-0.0038302440789528187,-0.019908057510899378
1760554745110397400,9.0013974609375,0.0008639233529567718,0.007581121045071631,0.01423714486816898
1760554745120401400,9.0114013671875,0.0029658640682697296,0.026184717494435607,0.016397272910969332
1760554745130405400,9.0214052734375,0.001017068088054657,0.02989778320081532,0.0045427762624807655
1760554745140410400,9.031410400390625,0.010890811848640441,0.018773235661536453,-0.005354330107383429
1760554745150414600,9.04141455078125,0.00968085153698921,0.019891590433288364,-0.001742167492210865
1760554745160418600,9.05141845703125,0.009665069445967674,0.01391567609515041,-0.019712681069271636
1760554745170423600,9.061423583984375,0.0045627778708934785,0.015407631685957312,-0.005224429250555112
1760554745180427500,9.071427490234376,0.00410042105615139,0.00622857392495498,0.0057066415432374925
1760554745190432500,9.0814326171875,0.01874795508980751,0.004239975657314062,0.012187464063055813
1760554745200436500,9.0914365234375,0.009606032735109328,0.009841631589271128,0.012427912622271105
1760554745210440400,9.1014404296875,0.029803602111339568,-0.007628284655045717,0.027852824236592275
1760554745220445400,9.111445556640625,0.025163082829117774,-0.025780666738189757,0.010778684110520407
1760554745230449400,9.121449462890626,0.01125379994213581,-0.017643044321518392,-0.002483962302841246
1760554745240453400,9.131453369140624,0.02383388005197048,-0.014606507903523743,-0.006695789577905088
1760554745250458400,9.141458251953125,0.010075988334417342,-0.0047585013723932205,0.013987818882754072
1760554745260462600,9.151462646484376,0.009933949515223502,0.012634130118321627,0.03825948756379075
1760554745270467600,9.161467529296875,0.014130816683173179,0.0179381182779558,0.009317653380939737
1760554745280471600,9.171471435546875,0.009639350482821465,0.024307013989053664,-0.013453638940816744
1760554745290475300,9.181475341796874,-0.0050350715577602385,0.0145893375730142,-0.01973110264195129
1760554745300480300,9.191480224609375,-0.0041477673292160035,0.005385291501227766,-0.010378925936901942
1760554745310484500,9.201484375,0.008258709779381751,-0.004491520999278873,0.0015358038656879216
1760554745320488400,9.211488525390624,0.027547347617149352,-0.002665346751734614,0.011041033974289894
1760554745330493400,9.221493408203125,0.010627776998281479,-0.004154288401547819,0.014424146207096054
1760554745340497400,9.231497314453126,0.009871990194916724,0.0018954035588540136,0.014210768317896872
1760554745350502400,9.24150244140625,0.00762742613852024,-0.004707556636445224,0.019366077854996545
1760554745360506600,9.251506591796876,0.010177695143222809,-0.012207173410523683,0.017063682664139195
1760554745370510300,9.26151025390625,0.029188100561499595,-0.0018871654534712433,0.02205412049572915
1760554745380515300,9.271515380859375,0.01438391466140747,-0.00903930223044008,0.008306211316073312
1760554745390519300,9.281519287109376,0.012151625564694403,-0.0037258521227166055,0.00548287012418732
1760554745400523500,9.2915234375,0.02847030768096447,-0.0003664038932882249,-0.013616784480120986
1760554745410528500,9.301528564453125,0.01784779137969017,-0.00730688894726336,-0.0033919165937695652
1760554745420532500,9.311532470703124,0.0034895956814289092,0.011346537993196397,0.0014188446888234465
1760554745430537500,9.321537353515625,-0.003542202651500702,0.013584142585843801,0.006009022023295983
1760554745440541400,9.33154150390625,0.007827917146682739,0.026976580258179454,-0.0010402480342425406
1760554745450545700,9.341545654296874,0.01724865644276142,0.024059468968771397,-0.016225624404801055
1760554745460550700,9.351550537109375,0.0034662148058414457,0.011383582067955285,0.012374428869364783
1760554745470554400,9.361554443359376,0.013176876959204673,0.0019568148898892104,0.01163013157439418
1760554745480558300,9.371558349609375,0.021688684716820717,0.0030503092150203884,0.016831919734878464
1760554745490563300,9.381563232421875,0.0038707039535045623,-0.005995020897407085,0.013140956262452527
1760554745500567600,9.391567626953124,0.020324995148181913,-0.0159672017974779,0.010530353638948872
1760554745510571500,9.401571533203125,0.03334054406583309,-0.0044654915088787675,0.013868567284103482
1760554745520576500,9.411576416015626,0.029005145210027693,-0.015273447379656135,-0.0005418791912030429
1760554745530580200,9.421580322265624,0.03275543765425682,-0.010920092742051928,0.014752894104272126
1760554745540585200,9.431585205078125,0.0106225163012743,0.0004893361532129347,0.004391649954533204
1760554745550589400,9.44158935546875,0.0027080899149179456,0.006139269939996301,0.009273467179341242
1760554745560593400,9.451593505859375,0.013052373796701431,-0.0015026048489846287,0.00634704920547083
1760554745570598400,9.461598388671876,0.010223872372508049,-0.011194251774623989,0.004057212102087215
1760554745580602400,9.471602294921874,0.005148468804359436,0.006378101930860429,-0.012457430977700277
1760554745590606300,9.4816064453125,-0.00038519992530345915,0.033471495235431935,-0.009431753880437464
1760554745600611300,9.491611328125,0.008290858483314513,0.019371365951467306,0.004981861799489707
1760554745610615300,9.501615234375,0.00933539910018444,0.010812814708985388,0.009604562297230586
1760554745620620500,9.51162060546875,-0.008326514318585396,0.005447305620461702,-0.007772634162334725
1760554745630624300,9.521624267578124,0.009922843599319458,-0.005470339436177164,-0.002895072987535968
1760554745640628200,9.531628173828125,0.007073883908987045,-0.002582856100052595,0.005079550020303577
1760554745650633200,9.54163330078125,0.01708791292309761,-0.007772807692270726,-0.022616549284616483
1760554745660637400,9.551637451171874,0.0037567221850156782,0.009041512453835457,0.007351002083625644
1760554745670641400,9.561641357421875,0.02320610354244709,0.0023613771027885377,0.02472711169780232
1760554745680646400,9.571646484375,0.009882511588931083,0.014374470979627222,0.02959076307825744
1760554745690650400,9.581650390625,0.014065350231528282,0.009996767352055758,0.011499810592457652
1760554745700655400,9.5916552734375,0.021548399463295936,-0.002428816315811127,-0.009334029127005487
1760554745710659300,9.601659423828124,0.03052724021077156,-0.009331289180647582,-0.00964476644345559
1760554745720663300,9.611663330078125,0.014668576821684836,-0.009616042672470211,-0.005541778970882296
1760554745730668300,9.621668212890626,0.01676642588376999,0.015127846630197018,0.017105001055216416
1760554745740672300,9.63167236328125,0.026048048970103262,0.008714965646900236,0.01766124669848941
1760554745750676500,9.641676513671875,0.012137597039341926,-0.005487071375269443,0.01175619650632143
1760554745760681500,9.651681396484374,0.013487842604517936,-0.012446388993877917,0.010141043794108554
1760554745770685400,9.661685546875,-0.001620294678211212,-0.011734788392111659,0.0016387071177363394
1760554745780689400,9.671689453125,0.02607201436758041,-0.014315416002459823,-0.01388883375399746
1760554745790694400,9.6816943359375,0.022637363743782044,0.005670739112794399,-0.0002763875222764909
1760554745800698400,9.691698486328125,0.02339081245958805,0.007433492735307664,0.006250794889917597
1760554745810703400,9.701703369140626,0.0033428806871175763,-0.0008517579911276698,-0.004914468252239748
1760554745820707300,9.711707275390625,0.003492518290877342,0.010115480094589293,0.0017671740693040192
1760554745830711300,9.721711181640625,0.014418401452898978,-0.0071599912898614995,0.011160787896439433
1760554745840716300,9.73171630859375,0.0251923089236021,-0.007623827675636857,-0.0043344764071982355
1760554745850720500,9.741720458984375,0.019803017100691794,-0.011491371557675302,0.0012010828854516148
1760554745860724500,9.751724365234375,0.01516249781847,0.006944777636602521,0.0031592038164380935
1760554745870729500,9.7617294921875,0.0043827451288700105,0.01650651457225904,0.004407514243945479
1760554745880733200,9.771733154296875,0.01634673916697502,0.013851159491576254,0.01450542214922607
1760554745890738400,9.781738525390624,0.01184767418205738,0.015957118794880806,0.014166235056426375
1760554745900742400,9.791742431640625,0.01049567505121231,0.005671506297774613,-0.005756526833260432
1760554745910746400,9.801746337890625,0.005403320348262786,-0.015242778246756641,0.003803949727071449
1760554745920751400,9.81175146484375,-0.00641921939253807,-0.0036416261716745793,-0.003121657418180257
1760554745930755300,9.82175537109375,0.004803016367554664,-0.015701262603979558,0.005120667481981218
1760554745940759300,9.83175927734375,0.012291326296329497,-0.015735548466071485,-0.005526334806578234
1760554745950764500,9.8417646484375,0.021430910563468932,0.002312624323926866,0.01601836572913453
1760554745960768500,9.8517685546875,0.028474399334192275,0.0010707710366696119,0.021397894209856168
1760554745970773500,9.8617734375,0.010533668974041939,-0.008684990633744746,0.01920233866064809
1760554745980777200,9.871777099609375,0.010847557228803635,0.0037209019529633224,0.024699584370059893
1760554745990781200,9.88178125,0.009061258333921431,0.011700465997401625,0.007036173113947734
1760554746000786400,9.891786376953124,0.007570142993330955,0.01500979147478938,0.005448355933232233
1760554746010790400,9.901790283203125,-0.0002063362270593643,0.00859718448612839,0.007236627589492127
1760554746020794400,9.91179443359375,0.015954524978995323,0.019372735924646257,0.006997822998091578
1760554746030799400,9.92179931640625,0.016699790388345716,0.005437058221083134,-0.007329283442161977
1760554746040803300,9.93180322265625,0.018344634985923765,0.003271715147048235,-0.008902551507716999
1760554746050807600,9.9418076171875,0.028217794224619865,0.008000259772595018,-0.007266666534729301
1760554746060812500,9.9518125,0.014600772282481193,0.0036388496926985678,0.008623159177601336
1760554746070816300,9.961816162109375,0.01025602107644081,-0.00013264993634074925,0.029643918037600813
1760554746080821200,9.9718212890625,0.007858896806836128,-0.0026459113989025355,0.012220389085123315
1760554746090825200,9.9818251953125,0.01788520078063011,-0.00492430465966463,0.007214735418092459
1760554746100829400,9.991829345703126,0.013845570001006125,-0.0025515841789543626,-0.013002872099168597
1760554746110834400,10.00183447265625,0.003968319109082222,0.009433123853616415,0.00670059361718595
1760554746120838400,10.01183837890625,0.015486907467246055,0.01174465219900012,-0.00395808084285818
1760554746130842400,10.02184228515625,0.009646364745497703,0.010710651242453604,-0.00240544457337819
1760554746140847400,10.031847412109375,0.006202361771464347,0.013031659802235663,0.002504521033680066
1760554746150851600,10.0418515625,0.01023731637597084,-0.002676781461201608,0.01137768205013126
1760554746160856600,10.051856689453125,0.03537409572005272,0.003126370125915855,0.001714841093868017
1760554746170860300,10.0618603515625,0.026541969966888426,-0.004082282611262053,0.0005152377794496715
1760554746180864300,10.0718642578125,0.020105799439549446,-0.010289685884024947,0.0014398874768521636
1760554746190869200,10.081869140625,0.019958499923348427,0.001004592198971659,0.008036454463982955
1760554746200873500,10.09187353515625,0.011734276935458183,-0.003795903417933732,0.014641350888041778
1760554746210877400,10.10187744140625,0.02161620400249958,-0.01069265892803669,-0.0008997983839362859
1760554746220882400,10.11188232421875,0.019677929416298864,-0.0035844343580305575,0.002811440691538155
1760554746230886400,10.121886474609376,0.0009837503403425216,-0.0033185499634593722,0.00020485665602609513
1760554746240891400,10.131891357421875,0.007576572734117507,-0.002564973383489996,-0.002956767446361482
1760554746250895400,10.141895263671875,0.028981179812550543,-0.00651723640691489,0.007003019763017073
1760554746260899300,10.1518994140625,0.013722235882282257,0.015426409451663493,0.004000504345633089
1760554746270904300,10.161904296875,-0.013954875594377516,0.00373202613517642,0.0027940420321654526
1760554746280908300,10.171908203125,0.001464227333664894,0.005958981469646096,0.00555456538721919
1760554746290912500,10.18191259765625,0.009694295540452003,0.013652696043718606,0.014724097268050535
1760554746300917500,10.19191748046875,0.0179249482691288,0.007952803901676088,0.020439607104333117
1760554746310921500,10.20192138671875,0.017924363747239113,-0.005038469091244041,0.0124082946063485
1760554746320926500,10.211926513671875,0.014487959557771681,0.0005989705401472747,0.008969506663549691
1760554746330930400,10.221930419921875,-0.004811784195899963,0.007494483941234648,0.004320648811245337
1760554746340934400,10.231934326171874,0.023769582644104958,0.008344835426565259,0.012619736266788095
1760554746350939400,10.241939453125,0.006410451564192772,-0.003452989998087287,-0.005555670498916879
1760554746360943400,10.251943359375,0.005215688821673393,-0.009063779084570706,0.004498946253908798
1760554746370947300,10.261947265625,0.00611819061934948,0.000503912667836994,0.01337912153303623
1760554746380952300,10.271952392578125,0.018393150302767752,-0.0023651764950715004,-0.007109539744257927
1760554746390956300,10.281956298828124,0.017346856120228765,0.00014874255461618302,-0.003757178842741996
1760554746400960500,10.29196044921875,0.013909282886981964,-0.0020350312252528963,0.0004642747771926224
1760554746410965500,10.301965576171876,-0.007337503281235695,-0.009528565318416804,-0.0028103538461495188
1760554746420969500,10.311969482421874,-0.0070376435518264766,-0.004708579549752175,0.011851117381313815
1760554746430974500,10.321974365234375,0.008230652728676796,-0.0024450550645589825,0.00866209381534718
1760554746440978200,10.331978271484376,0.025144378128647803,0.005076956204418092,-0.011753054701164363
1760554746450982400,10.341982421875,0.025604396855831144,-0.0013904679777100681,-0.0025034159219823778
1760554746460987400,10.3519873046875,0.018732757520675658,0.009569536649622023,0.0026758316131308673
1760554746470991400,10.361991455078124,0.01514730024933815,0.0024584808017127213,0.002806737116957083
1760554746480995300,10.371995361328125,0.0021335048973560333,0.022509463047794998,0.01174006735542789
1760554746491000300,10.382000244140626,0.001387070444226265,0.00105374683663249,-0.0004944324534386397
1760554746501004000,10.392004150390624,0.015001754298806189,0.02207068803803995,0.0061534263295121485
1760554746511009000,10.402009033203125,0.013349895438551902,0.004104695372469723,0.01412698075827211
1760554746521013000,10.412012939453126,0.013193243572115897,-0.0006605828005820512,0.018222533843060953
1760554746531017000,10.422016845703125,0.021421558213233948,-0.000963803530856967,0.018274492359161378
1760554746541022000,10.43202197265625,0.020826514929533003,-0.00762897877478972,0.019844856081577017
1760554746551026000,10.44202587890625,0.011260229682922363,-0.011693360403180121,-0.007050082908291369
1760554746561030000,10.45202978515625,0.009029694151878357,-0.013225903732702136,-0.003710672819893807
1760554746571035000,10.462034912109376,0.015323825860023498,0.007658789391163736,-0.004339225647551939
1760554746581038800,10.472038818359374,0.01772737987041473,0.01166634453209117,-0.0540898107743822
1760554746591043800,10.4820439453125,-0.00128010293841362,0.02292823644913733,-0.058939296632166946
1760554746601048000,10.492048095703124,-0.01970774003267288,0.04396245757890865,-0.012485707224113867
1760554746611052000,10.502052001953125,-0.012113047119975089,0.049979288449324664,0.023203920718515292
1760554746621057000,10.51205712890625,-0.0022819734573364257,0.046493894018977876,0.024166199012566357
1760554746631060700,10.522060791015624,0.0057400049567222595,0.02656516817938536,0.005098291253391653
1760554746641065000,10.53206494140625,0.022746084815263745,0.0025120376198552547,0.008995189094077795
1760554746651070000,10.542070068359376,0.016118775629997254,-0.01680653869844973,0.029518501559644937
1760554746661074000,10.552073974609375,0.02806114235818386,-0.04027165850326419,0.028539427394419906
1760554746671079000,10.562078857421875,0.02490881580710411,-0.05128704657964408,0.029391760774282738
1760554746681083000,10.572082763671874,0.042726212048530575,-0.05085249108728021,0.04904891226403415
1760554746691087000,10.582087158203125,0.03317804698050022,-0.0419192978461273,0.01920196420131251
1760554746701092000,10.592092041015626,0.044590252354741094,-0.024860501419659703,0.008871489649172871
1760554746711096000,10.602095947265624,0.01784603781402111,-0.015934505104273557,0.01686709151295945
1760554746721099800,10.612099853515625,0.007104863569140434,0.016395382347982376,-0.008996029344294219
1760554746731104800,10.622104736328126,-0.004251812225580215,0.04499143530046567,-0.012142510676477104
1760554746741109000,10.63210888671875,-0.01624035618305206,0.0592937178267166,-0.0874538909794297
1760554746751114000,10.642114013671875,-0.05641980635821819,0.07875099022965877,-0.27142993640173224
1760554746761118000,10.652117919921874,-0.07618366049230098,0.07954360191207378,-0.5035072288412601
1760554746771122000,10.662121826171875,-0.0859118583023548,0.060199452761095014,-0.7240854048080742
1760554746781127000,10.672126953125,-0.09957038129866122,0.0416955172939226,-0.8233969159748404
1760554746791131100,10.682131103515625,-0.09329612333476543,0.025558274425473062,-0.7979223560437559
1760554746801135000,10.692135009765625,-0.08243629114627837,0.01943067665696144,-0.7633295468945056
1760554746811140000,10.70214013671875,-0.0848883604735136,0.03803781677028164,-0.6740622406844049
1760554746821143800,10.712143798828125,-0.07785714666247368,0.0621460019852966,-0.576469516134262
1760554746831148800,10.722148681640626,-0.07128712062239646,0.07185007000109181,-0.49407830623872573
1760554746841153000,10.732153076171874,-0.0651028790295124,0.07187721373634412,-0.3796714807381853
1760554746851157000,10.742156982421875,-0.05494856476187706,0.09541554490784182,-0.1977394444320351
1760554746861162000,10.752161865234376,-0.0127443307608366,0.1114308418970555,0.02751344534754753
1760554746871166000,10.762166015625,0.01988426564335823,0.1206990940451622,0.17212408779077232
1760554746881170000,10.772169921875,0.03570201250016689,0.10745477787293493,0.27422997891642154
1760554746891175000,10.7821748046875,0.032550854992866515,0.11583455674871802,0.30555026920102535
1760554746901179000,10.792178955078125,0.030514380729198452,0.10857965371701865,0.26086481284350155
1760554746911184100,10.80218408203125,0.01716097815930843,0.08916428422704338,0.1811338351331651
1760554746921187800,10.812187744140624,0.030595044749975202,0.028258455028571185,0.06184789582155645
1760554746931191800,10.82219189453125,0.011653612914681434,-0.020602789176255465,-0.06508731613419949
1760554746941196800,10.83219677734375,-0.0003863689690828323,-0.03585822597518563,-0.17857048745118081
1760554746951201000,10.842200927734375,-0.007074468430876731,-0.06468209633417427,-0.23697116542831062
1760554746961205000,10.852205078125,0.008557400465011597,-0.08131123263910413,-0.2241658982604742
1760554746971210000,10.8622099609375,0.039247137761116026,-0.09564480535276233,-0.17895064587518572
1760554746981214000,10.8722138671875,0.03145838358104229,-0.07972268480602651,-0.14196020099967718
1760554746991219000,10.882218994140626,0.04408814805150032,-0.0786336839929223,-0.06967384020686149
1760554747001223000,10.892222900390625,0.057093175575137135,-0.07806326369382441,0.011632570126652716
1760554747011227000,10.902226806640625,0.0827145235657692,-0.08233279423918574,0.08683949454128742
1760554747021231900,10.91223193359375,0.07900105600059032,-0.09291706088930368,0.12142097857892513
1760554747031235800,10.92223583984375,0.07212883214354515,-0.09333755132369696,0.11984890695661306
1760554747041240000,10.932239990234375,0.09639467387199402,-0.09558865471873432,0.1372454474374652
1760554747051245000,10.9422451171875,0.08793547308444977,-0.09803809369746595,0.10798048224747181
1760554747061249000,10.9522490234375,0.06317220322787762,-0.08336619240753353,0.09636953943073749
1760554747071254000,10.96225390625,0.06356149480640888,-0.09410528429318218,0.08861454138979315
1760554747081258000,10.972258056640625,0.06354863532483578,-0.07514196941964328,0.07040989939644933
1760554747091262000,10.982261962890625,0.06671615944504737,-0.06715060533955693,0.08421236090809106
1760554747101267000,10.992266845703124,0.07262684479355812,-0.08459796269219368,0.0834868231125176
1760554747111271000,11.00227099609375,0.06189093124568462,-0.08505209966786205,0.05172273458316922
1760554747121275000,11.01227490234375,0.06204699859023094,0.05875197563283145,-0.6425934087745845
1760554747131280000,11.02227978515625,0.07251753920018672,0.159256824770011,-1.1474117932796477
1760554747141284000,11.0322841796875,0.053659693995118135,0.06557356528118252,-0.8916272063098847
1760554747151289000,11.0422890625,0.09552022912502288,-0.09026340457536279,-0.8107434053026139
1760554747161293000,11.05229296875,0.0323509485065937,-0.08501907418109476,-0.9929965998545288
1760554747171296800,11.062296875,0.1416033503860235,-0.16255875239223241,-1.1232521884046494
1760554747181302000,11.072302001953124,0.10038988098800182,-0.017959909984655676,-0.9969767555318773
1760554747191306000,11.082305908203125,0.08029811007380486,-0.8907647442616522,-1.2696452572852372
1760554747201310000,11.09231005859375,0.06790799957811831,-0.37003348196223373,0.2178545231565833
1760554747211315000,11.10231494140625,0.03554652967751026,0.7441902543995529,13.257403032815455
1760554747221319000,11.11231884765625,0.014533552265167235,-0.08900209766896441,-2.3285030071906743
1760554747231324000,11.122323974609374,0.04508183526396751,0.12720538893295452,-3.0948715564548968
1760554747241328000,11.132328125,0.030066052439808845,0.05619050938067958,-0.2787437300138175
1760554747251332000,11.14233203125,-0.030945173361897466,0.14282474540714174,2.616853062200546
1760554747261337000,11.152337158203125,-0.003424129229784012,-0.19397463027210904,-0.9588185820512473
1760554747271340800,11.1623408203125,0.007082067215442657,0.052807643743045626,0.22461773368120191
1760554747281344800,11.1723447265625,-0.007277882048487663,0.027305355554819104,0.06708455436602234
1760554747291349800,11.182349853515625,0.015399229183793066,0.06270593742299825,0.13480565306991338
1760554747301354000,11.19235400390625,0.01690145044028759,0.06977066991114989,0.16064911937862633
1760554747311359000,11.20235888671875,0.0006973346143960953,0.05482338574593886,0.12163228324204682
1760554747321363000,11.212363037109375,0.002766542103886604,0.0356369296410121,0.11779708899334072
1760554747331367000,11.222366943359376,0.004737549915909767,0.042983474745228886,0.042591187492012975
1760554747341372000,11.232371826171875,-0.024234862068295476,0.039039011435769495,-0.03719619658067822
1760554747351376100,11.242376220703125,-0.038922728112339974,0.028965525585692375,-0.0618820172868669
1760554747361379800,11.2523798828125,-0.03525251516699791,0.03651206850772723,-0.02833367568925023
1760554747371384800,11.262384765625,-0.019490297889709473,0.0274599250620231,-0.03821370306015014
1760554747381388800,11.272388916015625,-0.023753800553083418,0.03727521663364023,-0.04402224320843816
1760554747391393800,11.282393798828124,-0.020673370194435117,0.041368879155442115,-0.05193988446518778
1760554747401398000,11.29239794921875,-0.0175806648761034,0.04940342479012906,0.004463701410591602
1760554747411402000,11.302402099609376,-0.030949265015125273,0.05522294299015775,0.006196516552567481
1760554747421407000,11.312406982421875,-0.013442834419012069,0.07312467478048056,0.03725362585633993
1760554747431411000,11.322410888671875,-0.022626257827877996,0.07488951076222583,0.05909720887392759
1760554747441415200,11.332415283203124,0.332010186907649,0.08741530340155586,0.9611556466966867
1760554747451420200,11.342420166015625,-0.17255846062004565,-0.01701371517572552,-0.38411329911053177
1760554747461423900,11.352423828125,0.15237842690050601,0.010117233660258353,0.2829202850461006
1760554747471428900,11.362428955078125,-0.101236268684268,-0.04325514955976978,-0.2555667064353824
1760554747481432800,11.372432861328125,0.0941600466877222,-0.06216596706109121,0.14340952302515506
1760554747491437000,11.38243701171875,-0.025641806256771087,-0.12164037521695717,-0.12304945656359195
1760554747501441800,11.39244189453125,0.05727554640471935,-0.12941281758304685,0.03597966039776802
1760554747511445500,11.402445556640625,0.03385024715363979,-0.11897583218282087,-0.004684650684893131
1760554747521449500,11.412449462890624,0.02643675602674484,-0.10177190079777501,-0.025020167227089402
1760554747531454500,11.422454345703125,0.03975274919569492,-0.08072681121411733,0.04036269778758287
1760554747541458700,11.432458740234376,0.004621814581751823,-0.06136155534302815,0.005005845463275909
1760554747551463700,11.442463623046875,0.03220072638094425,-0.0298925773027353,0.046909342952072615
1760554747561467600,11.452467529296875,0.027264439022541043,-0.030401686735497785,0.026261691720783707
1760554747571471600,11.4624716796875,0.01382277364730835,-0.01950349529800005,0.03356529273241758
1760554747581476600,11.4724765625,0.008943769434094428,-0.004794814794789999,0.042970249937474725
1760554747591480800,11.482480712890625,0.02153378641605377,-0.007237084247218445,0.04746931492239236
1760554747601484500,11.492484619140624,0.016948212191462517,-0.01201250022179447,0.02996872954517603
1760554747611489500,11.502489501953125,0.001723170530796051,-0.0012878067542565986,0.008704992242157459
1760554747621493500,11.512493408203126,-0.010209259325265884,-0.005818303490476682,0.003943476928770542
1760554747631498500,11.52249853515625,0.0017874679386615752,-0.017381836102064698,0.0210161922827363
1760554747641502700,11.532502685546875,-0.0029687866777181626,0.01106170230298303,0.004779927752912044
1760554747651506700,11.542506591796876,-0.008753215298056602,0.02510828618524829,-0.01673193909227848
1760554747661511700,11.55251171875,-0.012931377765536307,0.028750816539220975,-0.0025987843215465544
1760554747671515600,11.562515625,-0.011106500425934791,0.0173239593018312,0.015670739601552484
1760554747681519600,11.57251953125,-0.006907295170426368,0.007176838535029674,0.03598433657288551
1760554747691524600,11.582524658203125,0.0014841010779142378,0.023462918714573604,0.04016951330304146
1760554747701528600,11.592528564453126,-0.00030804303586483,0.02530303472250234,0.028033085307478903
1760554747711532500,11.602532470703125,-0.020814239969849584,0.03317284564899746,0.01662292575985193
1760554747721537500,11.61253759765625,-0.019929273828864096,0.037610755031206644,0.011187164446711539
1760554747731541800,11.622541748046874,-0.007224690556526183,0.041476143488776866,0.038221594105660915
1760554747741546800,11.632546630859375,-0.01234393326640129,0.03833263499839231,0.030927053183317184
1760554747751550700,11.64255078125,-0.011502221745252608,0.03403027989566326,0.015760463711619377
1760554747761554700,11.6525546875,-0.008612930044531822,0.04812839531905483,0.012529811227321623
1760554747771559700,11.6625595703125,-0.019381576818227768,0.06832441662559285,0.019312895496189593
1760554747781563600,11.672563720703126,0.0008522329151630402,0.060226555397151965,0.01676847171038389
1760554747791567600,11.682567626953125,-0.024723522368073462,0.06454466975801625,0.029996786595880984
1760554747801572600,11.692572509765625,-0.03250467776358128,0.05821452602157369,0.00710983200520277
1760554747811576600,11.70257666015625,-0.010334347009658813,0.05060508306431584,0.01004296284765005
1760554747821581600,11.71258154296875,-0.0272445652782917,0.048895968458335846,0.012864450009167194
1760554747831585500,11.72258544921875,-0.039700726747512814,0.05758540693833492,0.03709259007573128
1760554747841589800,11.73258984375,-0.013539280530810355,0.034320001823548225,0.017963526713848113
1760554747851594800,11.7425947265625,0.0006546645164489745,0.040840060375211755,0.022788462652266025
1760554747861598700,11.7525986328125,-0.004602525359392166,0.0236336721715983,0.019389467863738536
1760554747871602400,11.7626025390625,-0.010063713374733925,0.014198036700487136,0.005160451503098011
1760554747881607400,11.772607421875,-0.0039823476344347,0.0057072157903283365,0.0242316471979022
1760554747891611600,11.782611572265624,0.0028039515048265454,0.0001615438123291824,0.01156885724067688
1760554747901616600,11.79261669921875,-0.002824409770965576,-0.011695658533187814,0.0023731588721275327
1760554747911620600,11.80262060546875,-0.005277648141980171,-0.01604720594784012,0.010516717839241027
1760554747921624600,11.81262451171875,0.011560089412331581,-0.013694154857046668,0.030734745481610298
1760554747931629600,11.822629638671875,0.009096914169192314,-0.02966679887297796,0.0286716754719615
1760554747941633800,11.8326337890625,0.013841478347778319,-0.03312336450106231,0.02925239796936512
1760554747951637500,11.842637451171875,0.0118511813133955,-0.04450282979961485,0.004390051652491092
1760554747961642500,11.852642578125,0.01227554420530796,-0.015898027285095304,0.006839782892167568
1760554747971646500,11.862646484375,0.017653145590424538,-0.03286194165247725,0.01922638625651598
1760554747981651500,11.8726513671875,0.02059621330499649,-0.03323768419626867,0.004073240788280964
1760554747991655700,11.88265576171875,0.011633739170432091,-0.021571097635582553,0.010419102683663367
1760554748001659600,11.89265966796875,0.025729484540224074,-0.028032742814184164,0.01367635091394186
1760554748011664600,11.90266455078125,0.018978256714344024,-0.0308941441442701,0.01690145044028759
1760554748021668600,11.912668701171874,0.0020791443616151807,-0.01679939200503286,0.015742635793983936
1760554748031672800,11.9226728515625,0.006135726276040077,-0.0062647360794799165,0.022388941940665243
1760554748041677800,11.932677734375,0.006139233407378196,-0.001464187946935999,0.01506926657706499
