time,seconds_elapsed,z,y,x
1760555327289248800,0.063248779296875,-1.0018768310546875,-0.025787353515625,-0.0280609130859375
1760555327299254500,0.073254638671875,-0.9930877685546875,-0.0266876220703125,-0.0283966064453125
1760555327309260500,0.083260498046875,-0.9991302490234375,-0.02435302734375,-0.0225830078125
1760555327319266600,0.0932666015625,-0.9899444580078125,-0.02435302734375,-0.0221405029296875
1760555327329272800,0.10327294921875,-0.99847412109375,-0.0231475830078125,-0.0189056396484375
1760555327339278600,0.113278564453125,-0.99688720703125,-0.0220794677734375,-0.0235748291015625
1760555327349284600,0.12328466796875,-0.9970550537109375,-0.02105712890625,-0.0234375
1760555327359291600,0.133291748046875,-1.00091552734375,-0.0149688720703125,-0.0225830078125
1760555327369297700,0.143297607421875,-0.9936370849609375,-0.01446533203125,-0.0221099853515625
1760555327379303700,0.1533037109375,-0.9998016357421875,-0.0161895751953125,-0.01751708984375
1760555327389309700,0.163309814453125,-0.9945068359375,-0.0196075439453125,-0.0214080810546875
1760555327399315700,0.173315673828125,-1,-0.0181732177734375,-0.023712158203125
1760555327409321500,0.183321533203125,-0.99847412109375,-0.01885986328125,-0.0224609375
1760555327419327700,0.19332763671875,-0.994415283203125,-0.0218505859375,-0.022308349609375
1760555327429333800,0.203333740234375,-0.9978790283203125,-0.0213165283203125,-0.0231170654296875
1760555327439340500,0.213340576171875,-0.994049072265625,-0.022613525390625,-0.0235443115234375
1760555327449346600,0.2233466796875,-0.9971160888671875,-0.0238494873046875,-0.0252685546875
1760555327459352800,0.233352783203125,-0.9950103759765625,-0.025665283203125,-0.02374267578125
1760555327469358600,0.243358642578125,-0.9964141845703125,-0.0261688232421875,-0.0223388671875
1760555327479364600,0.253364501953125,-0.997314453125,-0.0224609375,-0.020111083984375
1760555327489370600,0.26337060546875,-0.9952239990234375,-0.0198974609375,-0.0199127197265625
1760555327499377000,0.273376953125,-0.99749755859375,-0.016571044921875,-0.0223388671875
1760555327509382700,0.283382568359375,-0.999908447265625,-0.0162811279296875,-0.0245819091796875
1760555327519388700,0.293388671875,-1.001708984375,-0.0143890380859375,-0.0239410400390625
1760555327529394700,0.303394775390625,-0.9988250732421875,-0.01678466796875,-0.0247039794921875
1760555327539401700,0.313401611328125,-0.997100830078125,-0.01788330078125,-0.01947021484375
1760555327549407700,0.32340771484375,-0.99749755859375,-0.016632080078125,-0.0187835693359375
1760555327559413800,0.333413818359375,-0.9962310791015625,-0.0168609619140625,-0.0189361572265625
1760555327569419500,0.34341943359375,-1.00006103515625,-0.0134429931640625,-0.0214691162109375
1760555327579425500,0.353425537109375,-1.0008697509765625,-0.0169219970703125,-0.0231170654296875
1760555327589431800,0.363431884765625,-0.9976043701171875,-0.0179595947265625,-0.0233917236328125
1760555327599437800,0.373437744140625,-0.9989166259765625,-0.0202484130859375,-0.01971435546875
1760555327609443600,0.383443603515625,-0.9970703125,-0.0220184326171875,-0.0218048095703125
1760555327619450600,0.39345068359375,-0.9976959228515625,-0.0225677490234375,-0.020538330078125
1760555327629456600,0.40345654296875,-0.9934234619140625,-0.025177001953125,-0.0222930908203125
1760555327639462700,0.413462646484375,-0.996337890625,-0.0258941650390625,-0.0220489501953125
1760555327649468700,0.42346875,-0.9950714111328125,-0.02691650390625,-0.022369384765625
1760555327659474700,0.433474609375,-0.995574951171875,-0.023651123046875,-0.02239990234375
1760555327669480400,0.44348046875,-0.9971466064453125,-0.0227203369140625,-0.0233306884765625
1760555327679486700,0.45348681640625,-0.996337890625,-0.0211029052734375,-0.0244903564453125
1760555327689492700,0.46349267578125,-0.9989013671875,-0.0233612060546875,-0.0245208740234375
1760555327699498800,0.473498779296875,-0.9968109130859375,-0.0217132568359375,-0.024200439453125
1760555327709505500,0.483505615234375,-0.9969482421875,-0.019683837890625,-0.02142333984375
1760555327719511800,0.49351171875,-0.9985198974609375,-0.019378662109375,-0.0233612060546875
1760555327729517800,0.503517822265625,-0.9957122802734375,-0.0225067138671875,-0.02435302734375
1760555327739523600,0.513523681640625,-0.99835205078125,-0.0209197998046875,-0.021759033203125
1760555327749529600,0.523529541015625,-0.9984283447265625,-0.017364501953125,-0.01995849609375
1760555327759535600,0.53353564453125,-0.998748779296875,-0.018280029296875,-0.0210418701171875
1760555327769541600,0.543541748046875,-0.99603271484375,-0.0196685791015625,-0.0217742919921875
1760555327779547600,0.553547607421875,-0.9966888427734375,-0.0212249755859375,-0.02203369140625
1760555327789553700,0.5635537109375,-0.996337890625,-0.024383544921875,-0.023681640625
1760555327799560400,0.573560546875,-0.9969940185546875,-0.0258941650390625,-0.023773193359375
1760555327809566700,0.583566650390625,-0.9924163818359375,-0.0277862548828125,-0.023193359375
1760555327819572700,0.59357275390625,-0.99542236328125,-0.02313232421875,-0.023406982421875
1760555327829578800,0.603578857421875,-0.9976043701171875,-0.0226287841796875,-0.0232391357421875
1760555327839584500,0.61358447265625,-0.99456787109375,-0.023773193359375,-0.0234375
1760555327849590800,0.6235908203125,-0.9972991943359375,-0.0242156982421875,-0.0217437744140625
1760555327859596800,0.6335966796875,-0.9945068359375,-0.024627685546875,-0.023651123046875
1760555327869602600,0.6436025390625,-0.9951629638671875,-0.0258636474609375,-0.0238037109375
1760555327879608600,0.653608642578125,-0.9954833984375,-0.0247344970703125,-0.025360107421875
1760555327889616000,0.663615966796875,-0.9984893798828125,-0.0203857421875,-0.0234222412109375
1760555327899621600,0.67362158203125,-0.9960479736328125,-0.0245208740234375,-0.0257568359375
1760555327909627600,0.683627685546875,-0.9954376220703125,-0.027557373046875,-0.0242462158203125
1760555327919633700,0.693633544921875,-0.997039794921875,-0.0214996337890625,-0.0229339599609375
1760555327929639700,0.7036396484375,-0.9979248046875,-0.0170135498046875,-0.021209716796875
1760555327939645700,0.713645751953125,-0.999755859375,-0.0178680419921875,-0.0228729248046875
1760555327949651700,0.723651611328125,-0.9978790283203125,-0.018890380859375,-0.02215576171875
1760555327959657700,0.73365771484375,-0.996307373046875,-0.0183563232421875,-0.0205078125
1760555327969663700,0.743663818359375,-0.9975433349609375,-0.019500732421875,-0.020660400390625
1760555327979670800,0.7536708984375,-0.9968109130859375,-0.0207672119140625,-0.0239715576171875
1760555327989676800,0.7636767578125,-1.0001373291015625,-0.0168304443359375,-0.023101806640625
1760555327999682600,0.7736826171875,-0.9994354248046875,-0.018890380859375,-0.024261474609375
1760555328009688600,0.7836884765625,-0.9953460693359375,-0.022308349609375,-0.0252685546875
1760555328019694600,0.793694580078125,-0.9962921142578125,-0.02386474609375,-0.0240325927734375
1760555328029700900,0.803700927734375,-0.995269775390625,-0.0233917236328125,-0.0244293212890625
1760555328039706600,0.81370654296875,-0.998291015625,-0.0189056396484375,-0.0211029052734375
1760555328049712600,0.823712646484375,-0.999176025390625,-0.017669677734375,-0.021697998046875
1760555328059718700,0.83371875,-0.998077392578125,-0.01904296875,-0.0234832763671875
1760555328069725700,0.8437255859375,-0.9984588623046875,-0.0196075439453125,-0.0252838134765625
1760555328079731700,0.853731689453125,-0.9980316162109375,-0.0191192626953125,-0.0242767333984375
1760555328089737700,0.86373779296875,-0.9954071044921875,-0.019775390625,-0.024932861328125
1760555328099743500,0.873743408203125,-0.996826171875,-0.020782470703125,-0.0251617431640625
1760555328109749500,0.88374951171875,-0.9984283447265625,-0.016754150390625,-0.02484130859375
1760555328119755800,0.893755859375,-0.9979705810546875,-0.0168609619140625,-0.02020263671875
1760555328129761800,0.90376171875,-0.99530029296875,-0.021942138671875,-0.0197601318359375
1760555328139767600,0.913767578125,-0.9959564208984375,-0.021636962890625,-0.0201568603515625
1760555328149773600,0.923773681640625,-0.996429443359375,-0.02105712890625,-0.0205078125
1760555328159780900,0.93378076171875,-0.9982147216796875,-0.0209503173828125,-0.021392822265625
1760555328169786600,0.94378662109375,-0.9989013671875,-0.0197296142578125,-0.0209808349609375
1760555328179792600,0.953792724609375,-0.9999542236328125,-0.01727294921875,-0.0233917236328125
1760555328189798700,0.963798583984375,-0.9963531494140625,-0.0211944580078125,-0.025360107421875
1760555328199804700,0.9738046875,-0.9991455078125,-0.0233612060546875,-0.02447509765625
1760555328209810700,0.983810791015625,-0.9958343505859375,-0.02783203125,-0.025543212890625
1760555328219816700,0.993816650390625,-0.99505615234375,-0.0296173095703125,-0.025177001953125
1760555328229822700,1.00382275390625,-0.99609375,-0.028106689453125,-0.023773193359375
1760555328239828500,1.013828369140625,-0.9919586181640625,-0.0304412841796875,-0.0211639404296875
1760555328249835800,1.023835693359375,-0.9957122802734375,-0.02947998046875,-0.0189971923828125
1760555328259841800,1.033841796875,-0.99468994140625,-0.0309906005859375,-0.0205841064453125
1760555328269847600,1.04384765625,-0.995086669921875,-0.0283966064453125,-0.022735595703125
1760555328279853300,1.053853271484375,-0.9967041015625,-0.0249786376953125,-0.024169921875
1760555328289859600,1.063859619140625,-0.9964447021484375,-0.0237579345703125,-0.025848388671875
1760555328299865600,1.073865478515625,-0.9976654052734375,-0.021759033203125,-0.02386474609375
1760555328309871400,1.083871337890625,-0.994598388671875,-0.025482177734375,-0.0265960693359375
1760555328319877400,1.09387744140625,-0.9965667724609375,-0.0250244140625,-0.024627685546875
1760555328329883400,1.10388330078125,-0.9976348876953125,-0.02056884765625,-0.02294921875
1760555328339890400,1.113890380859375,-0.9991912841796875,-0.016357421875,-0.021942138671875
1760555328349896400,1.123896484375,-1.0006256103515625,-0.0162200927734375,-0.0206451416015625
1760555328359902500,1.13390234375,-0.99810791015625,-0.0214080810546875,-0.0226593017578125
1760555328369908500,1.143908447265625,-0.995025634765625,-0.0234832763671875,-0.0222320556640625
1760555328379914500,1.15391455078125,-0.9975738525390625,-0.01983642578125,-0.018951416015625
1760555328389920500,1.16392041015625,-0.9987945556640625,-0.014404296875,-0.0213775634765625
1760555328399926500,1.173926513671875,-0.9980621337890625,-0.0158843994140625,-0.02362060546875
1760555328409932300,1.183932373046875,-0.999237060546875,-0.020355224609375,-0.0219879150390625
1760555328419938600,1.1939384765625,-0.99591064453125,-0.02398681640625,-0.0240020751953125
1760555328429944600,1.203944580078125,-0.99517822265625,-0.0266571044921875,-0.02227783203125
1760555328439951400,1.213951416015625,-0.993011474609375,-0.0259552001953125,-0.0211944580078125
1760555328449957400,1.223957275390625,-0.9964141845703125,-0.01812744140625,-0.019683837890625
1760555328459963600,1.233963623046875,-0.998260498046875,-0.0147552490234375,-0.017364501953125
1760555328469969400,1.243969482421875,-0.9957427978515625,-0.0204315185546875,-0.0182647705078125
1760555328479975400,1.253975341796875,-0.9972381591796875,-0.0254974365234375,-0.017059326171875
1760555328489981400,1.2639814453125,-0.992462158203125,-0.02496337890625,-0.01641845703125
1760555328499987500,1.273987548828125,-0.9938201904296875,-0.02630615234375,-0.017425537109375
1760555328509993500,1.283993408203125,-0.9947967529296875,-0.028778076171875,-0.016815185546875
1760555328519999500,1.29399951171875,-0.99560546875,-0.0275726318359375,-0.0157012939453125
1760555328530005500,1.304005615234375,-0.99505615234375,-0.0223236083984375,-0.0137481689453125
1760555328540012300,1.31401220703125,-0.996429443359375,-0.015045166015625,-0.0099945068359375
1760555328550018600,1.3240185546875,-0.9989471435546875,-0.0125579833984375,-0.014007568359375
1760555328560024600,1.334024658203125,-0.99853515625,-0.0091552734375,-0.02276611328125
1760555328570030300,1.3440302734375,-1.00653076171875,-0.00103759765625,-0.0279998779296875
1760555328580036400,1.354036376953125,-1.0111083984375,0.0100860595703125,-0.029693603515625
1760555328590042400,1.36404248046875,-1.01165771484375,0.01611328125,-0.025146484375
1760555328600048600,1.374048583984375,-1.0052490234375,0.0019073486328125,-0.01715087890625
1760555328610054400,1.384054443359375,-0.998870849609375,-0.009796142578125,-0.0090484619140625
1760555328620060400,1.394060302734375,-0.9936981201171875,-0.0188140869140625,0.0045013427734375
1760555328630067500,1.4040673828125,-0.9890594482421875,-0.04913330078125,-0.0015716552734375
1760555328640073500,1.414073486328125,-0.96954345703125,-0.062469482421875,-0.022979736328125
1760555328650079500,1.42407958984375,-0.981170654296875,-0.047821044921875,-0.034820556640625
1760555328660085500,1.43408544921875,-1.015167236328125,-0.0239105224609375,-0.0258026123046875
1760555328670091300,1.44409130859375,-0.99664306640625,-0.013824462890625,-0.02874755859375
1760555328680097300,1.45409716796875,-1.0023193359375,-0.012908935546875,-0.0265655517578125
1760555328690103600,1.464103515625,-0.9971771240234375,-0.0190277099609375,-0.023193359375
1760555328700109600,1.474109619140625,-0.9873504638671875,-0.0220794677734375,-0.0209197998046875
1760555328710115300,1.484115234375,-1.0049896240234375,-0.0176239013671875,-0.024017333984375
1760555328720121300,1.494121337890625,-0.99468994140625,-0.0173492431640625,-0.0218658447265625
1760555328730127400,1.50412744140625,-1.000244140625,-0.0215301513671875,-0.0181121826171875
1760555328740134400,1.514134521484375,-0.99383544921875,-0.0229644775390625,-0.0169677734375
1760555328750140400,1.524140380859375,-0.9940185546875,-0.0123291015625,-0.0168609619140625
1760555328760146400,1.534146484375,-0.9997711181640625,-0.0128631591796875,-0.0189361572265625
1760555328770152400,1.54415234375,-1.0008392333984375,-0.01239013671875,-0.025787353515625
1760555328780158500,1.554158447265625,-1.0003662109375,-0.0099334716796875,-0.02777099609375
1760555328790164500,1.56416455078125,-1.000885009765625,-0.00897216796875,-0.0244903564453125
1760555328800170500,1.57417041015625,-1.00164794921875,-0.0074310302734375,-0.01873779296875
1760555328810176300,1.58417626953125,-0.99346923828125,-0.011505126953125,-0.0178985595703125
1760555328820182500,1.5941826171875,-0.998382568359375,-0.016510009765625,-0.018280029296875
1760555328830188500,1.6041884765625,-0.996307373046875,-0.0208587646484375,-0.0192718505859375
1760555328840195300,1.6141953125,-0.9970703125,-0.0243377685546875,-0.0211334228515625
1760555328850201300,1.624201416015625,-0.99822998046875,-0.01812744140625,-0.0188751220703125
1760555328860207600,1.63420751953125,-0.996795654296875,-0.0117034912109375,-0.01708984375
1760555328870213600,1.644213623046875,-0.9990997314453125,-0.01446533203125,-0.0170135498046875
1760555328880219400,1.654219482421875,-0.994903564453125,-0.0231475830078125,-0.0219879150390625
1760555328890225400,1.664225341796875,-0.999786376953125,-0.0225677490234375,-0.0228424072265625
1760555328900231400,1.6742314453125,-0.99981689453125,-0.0191802978515625,-0.021942138671875
1760555328910237400,1.684237548828125,-0.99432373046875,-0.0237884521484375,-0.0198516845703125
1760555328920243500,1.694243408203125,-0.9942169189453125,-0.0239715576171875,-0.015472412109375
1760555328930249500,1.70424951171875,-0.9925384521484375,-0.0272064208984375,-0.0168609619140625
1760555328940255500,1.71425537109375,-0.99298095703125,-0.024139404296875,-0.0194244384765625
1760555328950262500,1.724262451171875,-0.999542236328125,-0.02008056640625,-0.020782470703125
1760555328960268500,1.7342685546875,-0.992431640625,-0.0207672119140625,-0.0187225341796875
1760555328970274600,1.744274658203125,-0.998046875,-0.016632080078125,-0.0198516845703125
1760555328980280300,1.7542802734375,-0.997711181640625,-0.013427734375,-0.0156097412109375
1760555328990286300,1.764286376953125,-0.996429443359375,-0.01519775390625,-0.0114288330078125
1760555329000292600,1.774292724609375,-0.9974365234375,-0.0136871337890625,-0.010772705078125
1760555329010298400,1.78429833984375,-0.99322509765625,-0.01336669921875,-0.0140533447265625
1760555329020304400,1.794304443359375,-0.9984893798828125,-0.010528564453125,-0.0149078369140625
1760555329030310400,1.804310302734375,-0.9991455078125,-0.00665283203125,-0.018157958984375
1760555329040316400,1.81431640625,-0.999114990234375,-0.0064849853515625,-0.01953125
1760555329050322400,1.824322509765625,-1.000885009765625,-0.007568359375,-0.0184173583984375
1760555329060329500,1.83432958984375,-0.997283935546875,-0.009674072265625,-0.016204833984375
1760555329070335500,1.84433544921875,-0.999114990234375,-0.0099334716796875,-0.0146484375
1760555329080341200,1.85434130859375,-0.9985198974609375,-0.0059356689453125,-0.0180816650390625
1760555329090347500,1.864347412109375,-1.0021820068359375,-0.0001373291015625,-0.0196685791015625
1760555329100353500,1.874353515625,-1.003082275390625,-0.0023193359375,-0.0184783935546875
1760555329110359600,1.884359619140625,-0.998931884765625,-0.0114593505859375,-0.01922607421875
1760555329120365300,1.894365234375,-0.9954376220703125,-0.0229339599609375,-0.018402099609375
1760555329130371600,1.90437158203125,-0.9907073974609375,-0.0284576416015625,-0.0164794921875
1760555329140377600,1.914377685546875,-0.9931182861328125,-0.0257720947265625,-0.0183868408203125
1760555329150383400,1.92438330078125,-0.9965057373046875,-0.0226898193359375,-0.020294189453125
1760555329160389400,1.934389404296875,-0.99798583984375,-0.0189056396484375,-0.0195770263671875
1760555329170395400,1.9443955078125,-0.9977569580078125,-0.017791748046875,-0.0202178955078125
1760555329180402400,1.95440234375,-0.9934234619140625,-0.0212554931640625,-0.0243072509765625
1760555329190408400,1.964408447265625,-0.9941864013671875,-0.0235137939453125,-0.0263671875
1760555329200414500,1.97441455078125,-0.9965667724609375,-0.022735595703125,-0.02764892578125
1760555329210420500,1.98442041015625,-0.9949188232421875,-0.0247344970703125,-0.02569580078125
1760555329220426500,1.994426513671875,-0.993133544921875,-0.0275726318359375,-0.0230865478515625
1760555329230432500,2.0044326171875,-0.994354248046875,-0.0208740234375,-0.0197601318359375
1760555329240438500,2.0144384765625,-0.9961700439453125,-0.0184173583984375,-0.0183563232421875
1760555329250444300,2.0244443359375,-0.994537353515625,-0.01959228515625,-0.0191497802734375
1760555329260450300,2.0344501953125,-0.996124267578125,-0.0223541259765625,-0.0196533203125
1760555329270456600,2.04445654296875,-0.99359130859375,-0.0228118896484375,-0.017730712890625
1760555329280462300,2.05446240234375,-0.996917724609375,-0.0164642333984375,-0.0123138427734375
1760555329290468000,2.064468017578125,-0.997894287109375,-0.0057373046875,-0.009368896484375
1760555329300475100,2.07447509765625,-1.00115966796875,-0.0018768310546875,-0.0126953125
1760555329310481200,2.084481201171875,-0.999359130859375,-0.0122222900390625,-0.0156097412109375
1760555329320487200,2.094487060546875,-0.9981689453125,-0.0121917724609375,-0.0141754150390625
1760555329330493200,2.1044931640625,-0.997100830078125,-0.004974365234375,-0.010772705078125
1760555329340499200,2.114499267578125,-0.9961090087890625,-0.004180908203125,-0.0128173828125
1760555329350505200,2.124505126953125,-1.0021820068359375,-0.000335693359375,-0.0164794921875
1760555329360511000,2.134510986328125,-1.0026397705078125,0.0003662109375,-0.02105712890625
1760555329370517200,2.144517333984375,-0.9998626708984375,-0.003875732421875,-0.0254974365234375
1760555329380523300,2.154523193359375,-0.9979095458984375,-0.00506591796875,-0.028350830078125
1760555329390529300,2.164529296875,-0.9991912841796875,-0.0035858154296875,-0.0243377685546875
1760555329400535000,2.17453515625,-0.9969329833984375,-0.011505126953125,-0.025146484375
1760555329410541000,2.184541015625,-0.995361328125,-0.015655517578125,-0.0206756591796875
1760555329420548000,2.194548095703125,-0.996063232421875,-0.0128021240234375,-0.024017333984375
1760555329430554000,2.20455419921875,-0.9958038330078125,-0.0113677978515625,-0.0245513916015625
1760555329440560000,2.21456005859375,-1.0005950927734375,-0.0113677978515625,-0.021942138671875
1760555329450566100,2.224566162109375,-0.99560546875,-0.01715087890625,-0.020782470703125
1760555329460572200,2.234572265625,-0.993927001953125,-0.016571044921875,-0.01953125
1760555329470578200,2.244578125,-0.99786376953125,-0.0104522705078125,-0.0190582275390625
1760555329480584200,2.254584228515625,-0.9995269775390625,-0.010467529296875,-0.024688720703125
1760555329490590200,2.264590087890625,-0.9998626708984375,-0.0117340087890625,-0.02874755859375
1760555329500596000,2.274595947265625,-0.9996337890625,-0.0102081298828125,-0.0260772705078125
1760555329510602200,2.284602294921875,-0.9962615966796875,-0.01507568359375,-0.0222930908203125
1760555329520608300,2.294608154296875,-0.9933929443359375,-0.0168304443359375,-0.0222015380859375
1760555329530614000,2.304614013671875,-0.997528076171875,-0.01458740234375,-0.02154541015625
1760555329540620000,2.3146201171875,-0.99603271484375,-0.0159912109375,-0.021820068359375
1760555329550627300,2.32462744140625,-0.9980926513671875,-0.0119171142578125,-0.0213623046875
1760555329560633000,2.334633056640625,-0.9990081787109375,-0.0117034912109375,-0.0184783935546875
1760555329570639000,2.34463916015625,-0.9956512451171875,-0.0122528076171875,-0.01934814453125
1760555329580645000,2.35464501953125,-1.000030517578125,-0.0085601806640625,-0.0189056396484375
1760555329590651400,2.3646513671875,-1,-0.0115966796875,-0.0171356201171875
1760555329600657200,2.3746572265625,-0.994598388671875,-0.0208282470703125,-0.015625
1760555329610663200,2.3846630859375,-0.9934234619140625,-0.02374267578125,-0.017120361328125
1760555329620669200,2.394669189453125,-0.997161865234375,-0.0194854736328125,-0.0190277099609375
1760555329630675200,2.40467529296875,-0.996917724609375,-0.016448974609375,-0.018829345703125
1760555329640681200,2.41468115234375,-0.9953155517578125,-0.021270751953125,-0.022979736328125
1760555329650687200,2.424687255859375,-0.9939422607421875,-0.0241241455078125,-0.0243072509765625
1760555329660693200,2.434693359375,-0.9957427978515625,-0.0222625732421875,-0.0228118896484375
1760555329670699000,2.444698974609375,-0.9964447021484375,-0.0194549560546875,-0.0221710205078125
1760555329680706300,2.454706298828125,-0.9953155517578125,-0.020843505859375,-0.021392822265625
1760555329690712300,2.46471240234375,-0.9946136474609375,-0.022979736328125,-0.0190887451171875
1760555329700718000,2.474718017578125,-0.9932861328125,-0.0214996337890625,-0.0202484130859375
1760555329710724000,2.48472412109375,-0.996856689453125,-0.017333984375,-0.0227508544921875
1760555329720730000,2.494730224609375,-0.9998779296875,-0.013916015625,-0.02044677734375
1760555329730736000,2.504736083984375,-0.9974517822265625,-0.012786865234375,-0.019317626953125
1760555329740742100,2.5147421875,-0.9975738525390625,-0.00811767578125,-0.0176544189453125
1760555329750748200,2.524748046875,-0.9998626708984375,-0.0095977783203125,-0.0196685791015625
1760555329760754200,2.534754150390625,-0.9981842041015625,-0.009124755859375,-0.0205230712890625
1760555329770760000,2.544760009765625,-0.997161865234375,-0.0079193115234375,-0.0210113525390625
1760555329780766200,2.55476611328125,-0.9972076416015625,-0.0105743408203125,-0.0204925537109375
1760555329790772200,2.564772216796875,-0.99969482421875,-0.006378173828125,-0.0201263427734375
1760555329800778200,2.5747783203125,-0.9996490478515625,-0.0016937255859375,-0.022613525390625
1760555329810785000,2.584784912109375,-1.0006103515625,-0.0039215087890625,-0.0241851806640625
1760555329820791300,2.594791259765625,-0.998443603515625,-0.0107574462890625,-0.0217742919921875
1760555329830797300,2.60479736328125,-0.994598388671875,-0.0160369873046875,-0.022979736328125
1760555329840803000,2.614802978515625,-0.9956512451171875,-0.011322021484375,-0.0203399658203125
1760555329850809000,2.62480908203125,-1.000885009765625,-0.009918212890625,-0.019866943359375
1760555329860815000,2.634815185546875,-0.99932861328125,-0.0115509033203125,-0.0221710205078125
1760555329870821000,2.644821044921875,-0.9972991943359375,-0.0132293701171875,-0.0215606689453125
1760555329880827100,2.6548271484375,-0.995513916015625,-0.0162200927734375,-0.0192413330078125
1760555329890833200,2.664833251953125,-0.994903564453125,-0.019012451171875,-0.0191497802734375
1760555329900839200,2.674839111328125,-0.9967498779296875,-0.017974853515625,-0.0201568603515625
1760555329910845200,2.68484521484375,-0.997650146484375,-0.01800537109375,-0.022979736328125
1760555329920851200,2.694851318359375,-0.9939117431640625,-0.019744873046875,-0.0226593017578125
1760555329930857200,2.704857177734375,-0.99456787109375,-0.0208587646484375,-0.0210113525390625
1760555329940863200,2.71486328125,-0.9961700439453125,-0.0179901123046875,-0.02203369140625
1760555329950870300,2.724870361328125,-0.998016357421875,-0.0158233642578125,-0.0205535888671875
1760555329960876300,2.734876220703125,-0.99468994140625,-0.0213470458984375,-0.0211029052734375
1760555329970882300,2.74488232421875,-0.994598388671875,-0.0205230712890625,-0.02178955078125
1760555329980888000,2.75488818359375,-0.9981231689453125,-0.0207366943359375,-0.0244598388671875
1760555329990894000,2.76489404296875,-0.9964599609375,-0.016510009765625,-0.023468017578125
1760555330000900400,2.774900390625,-0.999053955078125,-0.0126495361328125,-0.01922607421875
1760555330010906000,2.784906005859375,-0.9954986572265625,-0.0136260986328125,-0.0186004638671875
1760555330020912000,2.794912109375,-0.995361328125,-0.0161285400390625,-0.02227783203125
1760555330030918100,2.804918212890625,-0.9972686767578125,-0.0149993896484375,-0.02264404296875
1760555330040924200,2.814924072265625,-0.998046875,-0.0116729736328125,-0.021209716796875
1760555330050930200,2.82493017578125,-0.9979705810546875,-0.0106201171875,-0.02081298828125
1760555330060936200,2.834936279296875,-0.9998321533203125,-0.0077056884765625,-0.0175018310546875
1760555330070942200,2.844942138671875,-0.996826171875,-0.0086212158203125,-0.017791748046875
1760555330080948200,2.8549482421875,-0.9973602294921875,-0.0116729736328125,-0.0204620361328125
1760555330090955300,2.864955322265625,-0.9983978271484375,-0.0113525390625,-0.0220947265625
1760555330100961300,2.874961181640625,-0.9987640380859375,-0.0111541748046875,-0.019989013671875
1760555330110967000,2.884967041015625,-0.9980926513671875,-0.0142364501953125,-0.017852783203125
1760555330120973000,2.89497314453125,-0.99395751953125,-0.02069091796875,-0.0193023681640625
1760555330130979000,2.90497900390625,-0.9940338134765625,-0.0179290771484375,-0.020843505859375
1760555330140985300,2.9149853515625,-0.997802734375,-0.01373291015625,-0.01953125
1760555330150991000,2.9249912109375,-0.999053955078125,-0.0133209228515625,-0.0200653076171875
1760555330160997000,2.9349970703125,-0.9980926513671875,-0.0145416259765625,-0.0198211669921875
1760555330171003100,2.945003173828125,-0.9969635009765625,-0.014678955078125,-0.0204925537109375
1760555330181009200,2.955009033203125,-0.99871826171875,-0.0133209228515625,-0.020477294921875
1760555330191015200,2.96501513671875,-0.9985504150390625,-0.0137786865234375,-0.0226287841796875
1760555330201021200,2.975021240234375,-0.9977874755859375,-0.0140533447265625,-0.020721435546875
1760555330211027200,2.985027099609375,-0.995147705078125,-0.0197906494140625,-0.0214691162109375
1760555330221033200,2.995033203125,-0.994903564453125,-0.0199737548828125,-0.0213165283203125
1760555330231039000,3.0050390625,-0.99627685546875,-0.019012451171875,-0.0191650390625
1760555330241046300,3.01504638671875,-0.9969940185546875,-0.0155487060546875,-0.0195159912109375
1760555330251052000,3.025052001953125,-0.9989776611328125,-0.0121612548828125,-0.0185699462890625
1760555330261058000,3.03505810546875,-0.9976043701171875,-0.01324462890625,-0.020538330078125
1760555330271064000,3.04506396484375,-0.9998779296875,-0.0113067626953125,-0.0193939208984375
1760555330281070600,3.055070556640625,-0.998809814453125,-0.0129241943359375,-0.02044677734375
1760555330291076400,3.065076416015625,-0.99603271484375,-0.0153961181640625,-0.0218658447265625
1760555330301082600,3.07508251953125,-0.996734619140625,-0.01312255859375,-0.02447509765625
1760555330311088600,3.085088623046875,-0.9997711181640625,-0.01446533203125,-0.025360107421875
1760555330321094400,3.095094482421875,-0.9984588623046875,-0.0152130126953125,-0.022369384765625
1760555330331100400,3.105100341796875,-0.9983978271484375,-0.0124969482421875,-0.021728515625
1760555330341106700,3.115106689453125,-0.9976348876953125,-0.0135955810546875,-0.022247314453125
1760555330351112700,3.12511279296875,-0.9971923828125,-0.0176239013671875,-0.0245513916015625
1760555330361118500,3.135118408203125,-0.9982452392578125,-0.014984130859375,-0.025543212890625
1760555330371124500,3.14512451171875,-0.9981231689453125,-0.0194091796875,-0.0219879150390625
1760555330381130500,3.155130615234375,-0.995697021484375,-0.0199127197265625,-0.0195159912109375
1760555330391137500,3.165137451171875,-0.994964599609375,-0.0225372314453125,-0.015777587890625
1760555330401143600,3.1751435546875,-0.991546630859375,-0.031707763671875,-0.017120361328125
1760555330411149600,3.185149658203125,-0.99346923828125,-0.024169921875,-0.01275634765625
1760555330421155300,3.1951552734375,-0.998077392578125,-0.0185089111328125,-0.015228271484375
1760555330431161600,3.20516162109375,-0.9972381591796875,-0.0195770263671875,-0.019073486328125
1760555330441167600,3.215167724609375,-0.9969024658203125,-0.0237274169921875,-0.021453857421875
1760555330451173600,3.225173583984375,-0.9937591552734375,-0.025360107421875,-0.02130126953125
1760555330461179400,3.235179443359375,-0.9945526123046875,-0.021270751953125,-0.0218963623046875
1760555330471185400,3.245185302734375,-0.999420166015625,-0.01702880859375,-0.0234222412109375
1760555330481191700,3.255191650390625,-0.9984130859375,-0.018707275390625,-0.0215606689453125
1760555330491197700,3.26519775390625,-0.9973602294921875,-0.0186309814453125,-0.022064208984375
1760555330501203500,3.275203369140625,-0.9965972900390625,-0.0158538818359375,-0.0215911865234375
1760555330511209500,3.28520947265625,-0.998748779296875,-0.0162200927734375,-0.021697998046875
1760555330521215500,3.295215576171875,-0.9987030029296875,-0.017303466796875,-0.0223236083984375
1760555330531221500,3.305221435546875,-0.997222900390625,-0.0213623046875,-0.02215576171875
1760555330541227500,3.3152275390625,-0.995819091796875,-0.0208282470703125,-0.01922607421875
1760555330551234600,3.325234619140625,-0.997772216796875,-0.0138397216796875,-0.0184173583984375
1760555330561240300,3.335240234375,-0.99786376953125,-0.0148773193359375,-0.0212554931640625
1760555330571246600,3.34524658203125,-0.9980621337890625,-0.021575927734375,-0.02655029296875
1760555330581252600,3.355252685546875,-0.9934844970703125,-0.035064697265625,-0.0244903564453125
1760555330591258600,3.365258544921875,-0.99041748046875,-0.03436279296875,-0.015869140625
1760555330601264400,3.375264404296875,-0.9940338134765625,-0.0238800048828125,-0.008453369140625
1760555330611270400,3.3852705078125,-0.9969329833984375,-0.01580810546875,-0.0056304931640625
1760555330621276700,3.395276611328125,-1.00006103515625,-0.0109100341796875,-0.002716064453125
1760555330631282700,3.40528271484375,-0.9994354248046875,-0.011016845703125,-0.00787353515625
1760555330641288400,3.415288330078125,-0.99786376953125,-0.01214599609375,-0.0125274658203125
1760555330651294500,3.42529443359375,-0.9993896484375,-0.01019287109375,-0.013641357421875
1760555330661300500,3.435300537109375,-1.001190185546875,-0.009185791015625,-0.0155487060546875
1760555330671306500,3.445306396484375,-0.9979400634765625,-0.0082855224609375,-0.0178375244140625
1760555330681312500,3.4553125,-0.999359130859375,-0.0072479248046875,-0.0162811279296875
1760555330691318500,3.465318603515625,-0.9983978271484375,-0.0087890625,-0.015716552734375
1760555330701324500,3.475324462890625,-0.99871826171875,-0.012542724609375,-0.0157623291015625
1760555330711330600,3.48533056640625,-0.997314453125,-0.017333984375,-0.0167388916015625
1760555330721337600,3.495337646484375,-0.9957427978515625,-0.0166168212890625,-0.0186767578125
1760555330731343600,3.505343505859375,-0.9975128173828125,-0.0117340087890625,-0.017486572265625
1760555330741349400,3.515349365234375,-1.000823974609375,-0.0110626220703125,-0.018096923828125
1760555330751355600,3.525355712890625,-0.9999542236328125,-0.0150604248046875,-0.0157012939453125
1760555330761361700,3.535361572265625,-0.9972381591796875,-0.011383056640625,-0.0185546875
1760555330771367400,3.545367431640625,-0.9982757568359375,-0.0108642578125,-0.0219879150390625
1760555330781373400,3.55537353515625,-0.9978790283203125,-0.0156707763671875,-0.0247955322265625
1760555330791379500,3.56537939453125,-1.0010223388671875,-0.017303466796875,-0.0229644775390625
1760555330801385700,3.5753857421875,-0.9960174560546875,-0.018096923828125,-0.017608642578125
1760555330811391500,3.5853916015625,-0.9921875,-0.0203399658203125,-0.018280029296875
1760555330821397500,3.5953974609375,-0.996612548828125,-0.0212249755859375,-0.02142333984375
1760555330831403500,3.605403564453125,-0.9985504150390625,-0.01947021484375,-0.0183258056640625
1760555330841409500,3.615409423828125,-0.9943389892578125,-0.0213165283203125,-0.016357421875
1760555330851415600,3.62541552734375,-0.9917144775390625,-0.0212860107421875,-0.014678955078125
1760555330861421600,3.635421630859375,-0.9936065673828125,-0.0191802978515625,-0.0172271728515625
1760555330871427600,3.645427490234375,-1.0025787353515625,-0.016632080078125,-0.0186614990234375
1760555330881433600,3.65543359375,-0.99774169921875,-0.016357421875,-0.019866943359375
1760555330891439400,3.665439453125,-0.9937591552734375,-0.02166748046875,-0.016357421875
1760555330901446700,3.67544677734375,-0.9920196533203125,-0.0193328857421875,-0.01373291015625
1760555330911452400,3.685452392578125,-0.9991455078125,-0.012908935546875,-0.012451171875
1760555330921458400,3.69545849609375,-0.9988555908203125,-0.0113525390625,-0.013275146484375
1760555330931464400,3.70546435546875,-1.000732421875,-0.0082550048828125,-0.0116729736328125
1760555330941470700,3.715470703125,-0.9965057373046875,-0.007232666015625,-0.0129547119140625
1760555330951476500,3.7254765625,-0.997802734375,-0.0085906982421875,-0.0195465087890625
1760555330961482500,3.735482421875,-1.0045928955078125,-0.0069580078125,-0.02191162109375
1760555330971488500,3.745488525390625,-0.999481201171875,-0.0122222900390625,-0.0206146240234375
1760555330981494500,3.75549462890625,-0.9938507080078125,-0.0145111083984375,-0.0179595947265625
1760555330991500500,3.76550048828125,-0.99383544921875,-0.0142059326171875,-0.017974853515625
1760555331001506600,3.775506591796875,-1.001983642578125,-0.0130462646484375,-0.018218994140625
1760555331011512600,3.7855126953125,-0.998779296875,-0.0133819580078125,-0.0188446044921875
1760555331021518600,3.7955185546875,-0.9962615966796875,-0.018646240234375,-0.017974853515625
1760555331031524400,3.8055244140625,-0.9943389892578125,-0.02197265625,-0.0193023681640625
1760555331041530600,3.815530517578125,-0.9964447021484375,-0.0216064453125,-0.02325439453125
1760555331051536600,3.82553662109375,-0.9997711181640625,-0.0184478759765625,-0.0255889892578125
1760555331061542400,3.83554248046875,-0.9998321533203125,-0.0181427001953125,-0.0227813720703125
1760555331071548400,3.84554833984375,-0.9942626953125,-0.020233154296875,-0.02044677734375
1760555331081554700,3.8555546875,-0.991180419921875,-0.0231781005859375,-0.0182952880859375
1760555331091561500,3.8655615234375,-0.9954986572265625,-0.0217437744140625,-0.0174102783203125
1760555331101567500,3.8755673828125,-0.9979248046875,-0.02001953125,-0.0181732177734375
1760555331111573500,3.885573486328125,-0.9948272705078125,-0.0169677734375,-0.013458251953125
1760555331121579500,3.89557958984375,-0.996337890625,-0.0118255615234375,-0.009429931640625
1760555331131585500,3.90558544921875,-0.9966583251953125,-0.0107879638671875,-0.0138397216796875
1760555331141591600,3.915591552734375,-1.0013427734375,-0.0102081298828125,-0.0163726806640625
1760555331151597600,3.92559765625,-1.0024566650390625,-0.0066680908203125,-0.0179290771484375
1760555331161603300,3.935603271484375,-1.00054931640625,-0.0083160400390625,-0.0151824951171875
1760555331171609600,3.945609619140625,-0.9964447021484375,-0.0139923095703125,-0.01214599609375
1760555331181615600,3.95561572265625,-0.99853515625,-0.0156707763671875,-0.010650634765625
1760555331191621600,3.96562158203125,-0.9991302490234375,-0.0102081298828125,-0.0093536376953125
1760555331201627400,3.97562744140625,-1.000396728515625,-0.0089569091796875,-0.0055694580078125
1760555331211633400,3.98563330078125,-0.998931884765625,-0.0125885009765625,-0.0026092529296875
1760555331221639700,3.9956396484375,-0.9982147216796875,-0.0114288330078125,0.0026397705078125
1760555331231645700,4.005645751953125,-0.9993438720703125,-0.0085906982421875,0.0049591064453125
1760555331241651500,4.0156513671875,-1.001312255859375,-0.0107269287109375,0.00115966796875
1760555331251657500,4.025657470703125,-0.9984130859375,-0.0214080810546875,-0.0071563720703125
1760555331261663500,4.03566357421875,-0.993988037109375,-0.03338623046875,-0.0139923095703125
1760555331271669500,4.04566943359375,-0.9938201904296875,-0.0323028564453125,-0.0162200927734375
1760555331281675500,4.055675537109375,-0.99407958984375,-0.0259552001953125,-0.01385498046875
1760555331291682600,4.0656826171875,-1.0008087158203125,-0.0230255126953125,-0.016876220703125
1760555331301688600,4.0756884765625,-0.9994354248046875,-0.0232696533203125,-0.010223388671875
1760555331311694600,4.085694580078125,-0.996673583984375,-0.0308837890625,-0.0052947998046875
1760555331321700600,4.09570068359375,-0.9940185546875,-0.0298004150390625,-0.0028839111328125
1760555331331706600,4.10570654296875,-0.99359130859375,-0.0234375,0.009368896484375
1760555331341712400,4.11571240234375,-1.0012664794921875,-0.01666259765625,0.0210418701171875
1760555331351718700,4.12571875,-0.99737548828125,-0.012939453125,0.0229644775390625
1760555331361724700,4.135724609375,-0.99566650390625,-0.015869140625,0.02679443359375
1760555331371730700,4.145730712890625,-0.9918670654296875,-0.025390625,0.0343170166015625
1760555331381736400,4.155736328125,-0.9913787841796875,-0.0241546630859375,0.0391082763671875
1760555331391742500,4.165742431640625,-0.990142822265625,-0.01641845703125,0.0372314453125
1760555331401748700,4.175748779296875,-0.994873046875,-0.009796142578125,0.0299224853515625
1760555331411754500,4.18575439453125,-1.0029449462890625,-0.0157623291015625,0.0208587646484375
1760555331421760500,4.195760498046875,-0.9985504150390625,-0.02252197265625,0.011962890625
1760555331431766500,4.2057666015625,-0.9980926513671875,-0.021026611328125,0.0058441162109375
1760555331441772500,4.2157724609375,-0.99456787109375,-0.0208892822265625,-0.0143280029296875
1760555331451778600,4.225778564453125,-1.0053863525390625,-0.0179443359375,-0.0322113037109375
1760555331461784600,4.23578466796875,-1.0128173828125,-0.0143585205078125,-0.0384674072265625
1760555331471790600,4.24579052734375,-1.00970458984375,-0.0140228271484375,-0.0229644775390625
1760555331481796600,4.255796630859375,-1.003631591796875,-0.0144195556640625,-0.002471923828125
1760555331491802600,4.265802734375,-0.991302490234375,-0.02777099609375,0.0081787109375
1760555331501808600,4.27580859375,-0.991546630859375,-0.0400390625,0.01458740234375
1760555331511815400,4.2858154296875,-0.9929046630859375,-0.0397186279296875,0.013671875
1760555331521821400,4.295821533203125,-0.9920196533203125,-0.037078857421875,0.009063720703125
1760555331531827700,4.30582763671875,-0.9972991943359375,-0.0215606689453125,0.0096282958984375
1760555331541833700,4.315833740234375,-1.0034942626953125,-0.016845703125,0.012298583984375
1760555331551839500,4.325839599609375,-1.00164794921875,-0.02227783203125,0.018890380859375
1760555331561845500,4.335845458984375,-0.997772216796875,-0.0332183837890625,0.03375244140625
1760555331571851500,4.3458515625,-0.9869842529296875,-0.0291290283203125,0.0408782958984375
1760555331581857800,4.35585791015625,-0.9865570068359375,-0.0247650146484375,0.0419158935546875
1760555331591863600,4.365863525390625,-0.9934539794921875,-0.024169921875,0.04095458984375
1760555331601869600,4.37586962890625,-0.9964599609375,-0.03271484375,0.0378570556640625
1760555331611875600,4.38587548828125,-0.9935760498046875,-0.0447540283203125,0.0424957275390625
1760555331621881600,4.395881591796875,-0.9822998046875,-0.0534515380859375,0.046234130859375
1760555331631887600,4.4058876953125,-0.9722747802734375,-0.0469818115234375,0.0442657470703125
1760555331641893600,4.4158935546875,-0.9860076904296875,-0.03790283203125,0.0302581787109375
1760555331651899600,4.425899658203125,-0.999603271484375,-0.0294342041015625,0.0103912353515625
1760555331661905400,4.435905517578125,-1.0079345703125,-0.028472900390625,-0.012176513671875
1760555331671911400,4.445911376953125,-1.0001983642578125,-0.03472900390625,-0.0204315185546875
1760555331681917700,4.455917724609375,-0.992950439453125,-0.0273590087890625,-0.0229949951171875
1760555331691923700,4.465923828125,-1.0037841796875,-0.0106964111328125,-0.0366363525390625
1760555331701929500,4.475929443359375,-1.017791748046875,-0.0074310302734375,-0.0419921875
1760555331711935500,4.485935546875,-1.010009765625,-0.016021728515625,-0.0391693115234375
1760555331721941500,4.49594140625,-1.0023345947265625,-0.02520751953125,-0.0231475830078125
1760555331731947800,4.50594775390625,-0.992919921875,-0.0312957763671875,-0.0120697021484375
1760555331741953500,4.51595361328125,-0.9904632568359375,-0.035125732421875,-0.007659912109375
1760555331751960600,4.525960693359375,-1.0030364990234375,-0.0341033935546875,-0.0031280517578125
1760555331761966600,4.535966552734375,-0.997589111328125,-0.0286712646484375,0.0030975341796875
1760555331771972600,4.54597265625,-0.99859619140625,-0.0182342529296875,0.0110626220703125
1760555331781978600,4.555978515625,-0.995635986328125,-0.0237274169921875,0.0091705322265625
1760555331791984600,4.565984619140625,-0.991302490234375,-0.0342559814453125,0.010406494140625
1760555331801990400,4.575990478515625,-0.9978485107421875,-0.03704833984375,0.01654052734375
1760555331811996400,4.585996337890625,-0.9876708984375,-0.0402069091796875,0.017333984375
1760555331822002700,4.596002685546875,-0.98583984375,-0.04046630859375,0.013916015625
1760555331832008700,4.6060087890625,-0.989990234375,-0.0318603515625,0.00811767578125
1760555331842014500,4.616014404296875,-0.9976043701171875,-0.0278472900390625,0.0043182373046875
1760555331852020500,4.6260205078125,-1.00482177734375,-0.0241851806640625,-0.0015869140625
1760555331862026800,4.63602685546875,-0.9974365234375,-0.0255584716796875,-0.0055999755859375
1760555331872032800,4.64603271484375,-0.9947509765625,-0.0238037109375,-0.00152587890625
1760555331882038500,4.65603857421875,-0.99700927734375,-0.015869140625,-0.0044708251953125
1760555331892044500,4.66604443359375,-1.0024566650390625,-0.014617919921875,-0.011871337890625
1760555331902050600,4.676050537109375,-1.0039520263671875,-0.0189971923828125,-0.0162353515625
1760555331912056600,4.686056640625,-1.0028228759765625,-0.019439697265625,-0.0110015869140625
1760555331922062600,4.6960625,-0.9971160888671875,-0.0193328857421875,-0.0091552734375
1760555331932068600,4.706068603515625,-0.99554443359375,-0.0164794921875,-0.0125274658203125
1760555331942074600,4.71607470703125,-1.00579833984375,-0.012298583984375,-0.0193023681640625
1760555331952080400,4.726080322265625,-1.00457763671875,-0.0130615234375,-0.02618408203125
1760555331962086700,4.736086669921875,-0.9984588623046875,-0.023590087890625,-0.0261688232421875
1760555331972092700,4.7460927734375,-0.9949798583984375,-0.0271453857421875,-0.023834228515625
1760555331982098700,4.7560986328125,-0.997650146484375,-0.0283203125,-0.0240020751953125
1760555331992104400,4.7661044921875,-0.9988250732421875,-0.0274658203125,-0.021240234375
1760555332002111700,4.77611181640625,-0.9997711181640625,-0.0262298583984375,-0.01220703125
1760555332012117500,4.786117431640625,-0.992462158203125,-0.0286407470703125,-0.0040740966796875
1760555332022123500,4.79612353515625,-0.9920501708984375,-0.031951904296875,0.0037689208984375
1760555332032129500,4.806129638671875,-0.9921417236328125,-0.0353546142578125,0.006500244140625
1760555332042135600,4.816135498046875,-0.98876953125,-0.040283203125,0.011871337890625
1760555332052141600,4.8261416015625,-0.9905853271484375,-0.037109375,0.0085296630859375
1760555332062147600,4.836147705078125,-0.988006591796875,-0.03656005859375,0.0002593994140625
1760555332072153600,4.846153564453125,-0.993194580078125,-0.0341796875,-0.006805419921875
1760555332082159600,4.85615966796875,-0.9980621337890625,-0.03057861328125,-0.011383056640625
1760555332092165400,4.866165283203125,-0.9954833984375,-0.0260772705078125,-0.0105133056640625
1760555332102171600,4.876171630859375,-0.9962005615234375,-0.0266571044921875,-0.0039825439453125
1760555332112177700,4.886177734375,-0.9891357421875,-0.033050537109375,0.0010986328125
1760555332122183700,4.89618359375,-0.9922943115234375,-0.026641845703125,0.00152587890625
1760555332132189400,4.906189453125,-0.995513916015625,-0.0103759765625,0.0025482177734375
1760555332142195500,4.916195556640625,-1.0070343017578125,-0.0004425048828125,-0.004608154296875
1760555332152201700,4.92620166015625,-1.0054168701171875,-0.000640869140625,-0.0130767822265625
1760555332162207500,4.93620751953125,-1.0009002685546875,-0.00738525390625,-0.0205841064453125
1760555332172213500,4.946213623046875,-0.999298095703125,-0.009796142578125,-0.021759033203125
1760555332182219500,4.956219482421875,-0.9969024658203125,-0.008758544921875,-0.023529052734375
1760555332192225800,4.966225830078125,-1.0016632080078125,-0.0055694580078125,-0.0228729248046875
1760555332202231600,4.9762314453125,-1.0010528564453125,-0.0064239501953125,-0.022674560546875
1760555332212237600,4.986237548828125,-0.99945068359375,-0.007049560546875,-0.019683837890625
1760555332222243600,4.99624365234375,-0.999847412109375,-0.003814697265625,-0.0174560546875
1760555332232249600,5.00624951171875,-0.9988861083984375,-0.003631591796875,-0.02325439453125
1760555332242255600,5.016255615234375,-1.0011749267578125,-0.0090179443359375,-0.023895263671875
1760555332252261600,5.02626171875,-0.998138427734375,-0.0161590576171875,-0.0210113525390625
1760555332262267600,5.036267578125,-0.9951324462890625,-0.0268707275390625,-0.0134735107421875
1760555332272273700,5.046273681640625,-0.988861083984375,-0.027008056640625,-0.009735107421875
1760555332282279400,5.056279541015625,-0.98785400390625,-0.01580810546875,-0.014862060546875
1760555332292286500,5.066286376953125,-1.0057830810546875,-0.00140380859375,-0.017578125
1760555332302292200,5.076292236328125,-1.00640869140625,-0.001495361328125,-0.0230255126953125
1760555332312298200,5.08629833984375,-1.0031890869140625,-0.007476806640625,-0.0207366943359375
1760555332322304500,5.096304443359375,-0.9966888427734375,-0.0142364501953125,-0.0148773193359375
1760555332332310500,5.106310546875,-0.98846435546875,-0.0076141357421875,-0.015167236328125
1760555332342316300,5.11631640625,-1.0067291259765625,0.00299072265625,-0.017974853515625
1760555332352322300,5.126322265625,-1.00640869140625,0.0006866455078125,-0.017181396484375
1760555332362328600,5.13632861328125,-1.0047454833984375,-0.0008392333984375,-0.0113677978515625
1760555332372334600,5.14633447265625,-0.9984130859375,-0.002899169921875,-0.011566162109375
1760555332382340400,5.15634033203125,-0.989532470703125,-0.0121307373046875,-0.020050048828125
1760555332392346400,5.166346435546875,-1.009185791015625,-0.00738525390625,-0.01593017578125
1760555332402352400,5.176352294921875,-0.999542236328125,-0.010894775390625,-0.011444091796875
1760555332412358400,5.1863583984375,-0.9963836669921875,-0.0085601806640625,-0.0014801025390625
1760555332422364400,5.196364501953125,-0.9954681396484375,-0.00579833984375,0.0047607421875
1760555332432370400,5.206370361328125,-0.9906463623046875,-0.0094451904296875,0.0017852783203125
1760555332442376400,5.21637646484375,-1.0084686279296875,-0.00738525390625,0.0001983642578125
1760555332452382200,5.22638232421875,-0.9989013671875,-0.008697509765625,0.002777099609375
1760555332462388500,5.236388427734375,-0.998992919921875,-0.0120391845703125,0.004058837890625
1760555332472394500,5.24639453125,-0.991180419921875,-0.026885986328125,0.006195068359375
1760555332482400500,5.256400390625,-0.9814453125,-0.04010009765625,-0.0011444091796875
1760555332492406300,5.26640625,-0.9922027587890625,-0.03350830078125,-0.0079345703125
1760555332502412300,5.276412353515625,-0.9969482421875,-0.0276031494140625,-0.0119476318359375
1760555332512418600,5.28641845703125,-0.9979095458984375,-0.0280303955078125,-0.016387939453125
1760555332522424600,5.296424560546875,-0.9954681396484375,-0.0236358642578125,-0.0157012939453125
1760555332532430300,5.306430419921875,-0.9961090087890625,-0.02008056640625,-0.0164642333984375
1760555332542436400,5.316436279296875,-0.999237060546875,-0.0211334228515625,-0.018524169921875
1760555332552442400,5.3264423828125,-0.998687744140625,-0.01953125,-0.0185089111328125
1760555332562448400,5.336448486328125,-0.9992218017578125,-0.0149993896484375,-0.01641845703125
1760555332572454400,5.346454345703125,-1.001007080078125,-0.01104736328125,-0.00390625
1760555332582460400,5.35646044921875,-0.998199462890625,-0.006500244140625,0.0059051513671875
1760555332592467200,5.36646728515625,-1.00006103515625,-0.010223388671875,0.006378173828125
1760555332602473500,5.376473388671875,-0.9968414306640625,-0.005767822265625,0.0051727294921875
1760555332612479500,5.3864794921875,-1.001983642578125,-0.00421142578125,0.0062255859375
1760555332622485500,5.396485595703125,-1.001373291015625,-0.0089111328125,0.001251220703125
1760555332632491300,5.4064912109375,-1.000152587890625,-0.006072998046875,-0.001983642578125
1760555332642497300,5.416497314453125,-1.0041046142578125,-0.0069732666015625,0.0036163330078125
1760555332652503600,5.426503662109375,-0.997039794921875,-0.02392578125,-0.000579833984375
1760555332662509600,5.436509521484375,-0.9889068603515625,-0.0323486328125,-0.0059356689453125
1760555332672515300,5.446515380859375,-0.9926910400390625,-0.026397705078125,-0.000213623046875
1760555332682521300,5.456521240234375,-0.99749755859375,-0.0198822021484375,-0.0001373291015625
1760555332692527400,5.46652734375,-0.9989166259765625,-0.0223388671875,-0.0067596435546875
1760555332702533400,5.476533447265625,-0.99615478515625,-0.0263671875,-0.00439453125
1760555332712539400,5.486539306640625,-1.000518798828125,-0.0275421142578125,0.0017852783203125
1760555332722545400,5.49654541015625,-0.9954376220703125,-0.016937255859375,0.004364013671875
1760555332732551400,5.506551513671875,-0.994293212890625,-0.0237884521484375,-0.00042724609375
1760555332742557400,5.516557373046875,-0.9973602294921875,-0.0265350341796875,-0.002197265625
1760555332752563500,5.5265634765625,-0.99835205078125,-0.0361785888671875,-0.002685546875
1760555332762569500,5.536569580078125,-0.99169921875,-0.0371246337890625,0.0007171630859375
1760555332772575500,5.546575439453125,-0.98980712890625,-0.0425567626953125,0.0049591064453125
1760555332782581200,5.556581298828125,-0.9837493896484375,-0.042022705078125,0.00341796875
1760555332792587500,5.56658740234375,-0.9920196533203125,-0.036651611328125,-0.005157470703125
1760555332802593500,5.576593505859375,-1.0012969970703125,-0.0277252197265625,-0.0130462646484375
1760555332812599300,5.586599365234375,-1.0048675537109375,-0.01654052734375,-0.0192413330078125
1760555332822605300,5.596605224609375,-1.0089111328125,-0.0050811767578125,-0.020294189453125
1760555332832611300,5.606611328125,-1.000823974609375,-0.0139923095703125,-0.025909423828125
1760555332842617600,5.61661767578125,-1.00225830078125,-0.0195159912109375,-0.02838134765625
1760555332852623400,5.626623291015625,-1.0020904541015625,-0.0236358642578125,-0.0274200439453125
1760555332862629400,5.63662939453125,-0.99798583984375,-0.0184173583984375,-0.0215911865234375
1760555332872635400,5.646635498046875,-1.0003662109375,-0.0267486572265625,-0.01324462890625
1760555332882641400,5.656641357421875,-0.992340087890625,-0.0237579345703125,-0.011993408203125
1760555332892647400,5.6666474609375,-1.0017547607421875,-0.0274200439453125,-0.0123748779296875
1760555332902653400,5.6766533203125,-0.9961395263671875,-0.0341033935546875,-0.0144805908203125
1760555332912659500,5.686659423828125,-0.99359130859375,-0.0447845458984375,-0.01654052734375
1760555332922665500,5.69666552734375,-0.990264892578125,-0.0519256591796875,-0.014373779296875
1760555332932671200,5.706671142578125,-0.984222412109375,-0.0509796142578125,-0.0087738037109375
1760555332942677500,5.716677490234375,-0.9913177490234375,-0.04730224609375,-0.0087890625
1760555332952683500,5.72668359375,-0.9896697998046875,-0.045318603515625,-0.0088043212890625
1760555332962690300,5.736690185546875,-0.9941558837890625,-0.0495452880859375,-0.009002685546875
1760555332972696300,5.7466962890625,-0.9891510009765625,-0.0561370849609375,-0.0078582763671875
1760555332982702600,5.75670263671875,-0.982666015625,-0.060943603515625,-0.0081787109375
1760555332992708400,5.766708251953125,-0.9844970703125,-0.0540771484375,-0.0021209716796875
1760555333002714400,5.77671435546875,-0.994171142578125,-0.0244903564453125,0.0024566650390625
1760555333012720400,5.786720458984375,-1.008026123046875,-0.00543212890625,-0.007904052734375
1760555333022726400,5.796726318359375,-1.005035400390625,-0.0192413330078125,-0.0196990966796875
1760555333032732400,5.806732421875,-1.0015869140625,-0.0290069580078125,-0.01617431640625
1760555333042738400,5.816738525390625,-0.9937896728515625,-0.026336669921875,-0.0129852294921875
1760555333052744400,5.826744384765625,-0.9888458251953125,-0.0228424072265625,-0.0146942138671875
1760555333062750500,5.83675048828125,-1.006500244140625,-0.018035888671875,-0.01092529296875
1760555333072756500,5.846756591796875,-1.0002899169921875,-0.0198974609375,-0.013397216796875
1760555333082762500,5.856762451171875,-0.9995880126953125,-0.023468017578125,-0.0105438232421875
1760555333092768500,5.8667685546875,-0.9951629638671875,-0.018524169921875,-0.0109710693359375
1760555333102774300,5.876774169921875,-0.9915771484375,-0.0131378173828125,-0.0142059326171875
1760555333112780300,5.8867802734375,-1.009979248046875,-0.0127410888671875,-0.014739990234375
1760555333122786600,5.89678662109375,-0.9978790283203125,-0.0140533447265625,-0.0137176513671875
1760555333132792600,5.90679248046875,-1.001129150390625,-0.01959228515625,-0.0092315673828125
1760555333142798300,5.91679833984375,-0.994720458984375,-0.0230712890625,-0.004913330078125
1760555333152804400,5.926804443359375,-0.9877166748046875,-0.0213165283203125,-0.006805419921875
1760555333162810400,5.936810302734375,-1.000335693359375,-0.0156402587890625,-0.0110321044921875
1760555333172816600,5.946816650390625,-1.004302978515625,-0.0129852294921875,-0.0118865966796875
1760555333182822400,5.956822509765625,-1.001220703125,-0.0178070068359375,-0.007720947265625
1760555333192828400,5.966828369140625,-0.9935455322265625,-0.01153564453125,-0.005096435546875
1760555333202834400,5.97683447265625,-0.9949188232421875,-0.0008392333984375,-0.0078277587890625
1760555333212840200,5.986840087890625,-1.0079193115234375,0.0010986328125,-0.0094451904296875
1760555333222846500,5.996846435546875,-1.0052947998046875,-0.002197265625,-0.0140838623046875
1760555333232852500,6.0068525390625,-1.0005645751953125,-0.002685546875,-0.013946533203125
1760555333242858500,6.0168583984375,-0.9975128173828125,-0.0075531005859375,-0.0149078369140625
1760555333252864300,6.0268642578125,-0.9945831298828125,-0.0170745849609375,-0.0150146484375
1760555333262870300,6.036870361328125,-1.001678466796875,-0.0098724365234375,-0.0128326416015625
1760555333272876500,6.04687646484375,-0.996612548828125,-0.011383056640625,-0.0123138427734375
1760555333282882000,6.056882080078125,-0.99755859375,-0.0194854736328125,-0.010955810546875
1760555333292888000,6.06688818359375,-0.9998626708984375,-0.019012451171875,-0.0097503662109375
1760555333302894000,6.07689404296875,-0.9928131103515625,-0.016082763671875,-0.0111083984375
1760555333312900000,6.086900146484375,-0.997772216796875,-0.006866455078125,-0.0130767822265625
1760555333322906000,6.096906005859375,-1.0043182373046875,-0.005889892578125,-0.019317626953125
1760555333332911900,6.106911865234375,-1.001953125,-0.0095062255859375,-0.0205535888671875
1760555333342918100,6.116918212890625,-0.99981689453125,-0.0084991455078125,-0.0168609619140625
1760555333352924200,6.126924072265625,-0.9984893798828125,-0.0141448974609375,-0.0129852294921875
1760555333362930200,6.13693017578125,-0.9925079345703125,-0.017669677734375,-0.015411376953125
1760555333372936000,6.14693603515625,-0.99957275390625,-0.0151214599609375,-0.0157470703125
1760555333382942000,6.15694189453125,-1.00201416015625,-0.013702392578125,-0.0171356201171875
1760555333392949000,6.166948974609375,-1.0001373291015625,-0.01446533203125,-0.0137786865234375
1760555333402954000,6.1769541015625,-0.998382568359375,-0.007537841796875,-0.0126495361328125
1760555333412961000,6.1869609375,-0.9955902099609375,-0.0099945068359375,-0.0119476318359375
1760555333422967300,6.19696728515625,-0.9967498779296875,-0.0178680419921875,-0.012725830078125
1760555333432973000,6.20697314453125,-0.9971160888671875,-0.0206298828125,-0.015625
1760555333442979000,6.21697900390625,-0.9948577880859375,-0.0234527587890625,-0.014984130859375
1760555333452985000,6.226985107421875,-0.993804931640625,-0.0229644775390625,-0.015594482421875
1760555333462991000,6.2369912109375,-0.9956512451171875,-0.0176239013671875,-0.0148468017578125
1760555333472997000,6.2469970703125,-0.9973602294921875,-0.018768310546875,-0.0149688720703125
1760555333483003100,6.257003173828125,-0.9960479736328125,-0.0234222412109375,-0.019134521484375
1760555333493009200,6.267009033203125,-0.9968719482421875,-0.021728515625,-0.01849365234375
1760555333503015200,6.27701513671875,-0.9954071044921875,-0.0222015380859375,-0.0188446044921875
1760555333513021000,6.28702099609375,-0.9941864013671875,-0.024200439453125,-0.0198822021484375
1760555333523027200,6.297027099609375,-0.9969940185546875,-0.0239105224609375,-0.02056884765625
1760555333533033200,6.307033203125,-0.996734619140625,-0.0225830078125,-0.0216522216796875
1760555333543039000,6.3170390625,-0.9974822998046875,-0.0237579345703125,-0.0174713134765625
1760555333553045000,6.327044921875,-0.9975433349609375,-0.026123046875,-0.018035888671875
1760555333563051000,6.337051025390625,-0.994110107421875,-0.02264404296875,-0.018218994140625
1760555333573057300,6.347057373046875,-0.99664306640625,-0.0213165283203125,-0.0206146240234375
1760555333583063000,6.35706298828125,-1.0000152587890625,-0.0198516845703125,-0.0223541259765625
1760555333593069000,6.367069091796875,-0.998565673828125,-0.0173492431640625,-0.0164947509765625
1760555333603075000,6.377074951171875,-1.0004730224609375,-0.0131378173828125,-0.01220703125
1760555333613081000,6.3870810546875,-0.997894287109375,-0.013580322265625,-0.010498046875
1760555333623087000,6.397087158203125,-0.9969482421875,-0.0160980224609375,-0.013427734375
1760555333633093000,6.407093017578125,-1.0013580322265625,-0.01605224609375,-0.0123291015625
1760555333643099100,6.41709912109375,-0.9981231689453125,-0.015594482421875,-0.0128631591796875
1760555333653105000,6.42710498046875,-0.996612548828125,-0.015777587890625,-0.0091552734375
1760555333663111000,6.43711083984375,-0.99798583984375,-0.0152740478515625,-0.0073089599609375
1760555333673117200,6.4471171875,-0.996429443359375,-0.0138092041015625,-0.00970458984375
1760555333683123200,6.457123291015625,-1,-0.0167388916015625,-0.010711669921875
1760555333693129000,6.46712890625,-0.999298095703125,-0.015289306640625,-0.0100860595703125
1760555333703135000,6.477135009765625,-0.9975433349609375,-0.0196685791015625,-0.0085296630859375
1760555333713141000,6.48714111328125,-0.990478515625,-0.021942138671875,-0.0110931396484375
1760555333723147300,6.497147216796875,-0.9973907470703125,-0.0201416015625,-0.0088653564453125
1760555333733153000,6.507153076171875,-0.9991302490234375,-0.021697998046875,-0.0117340087890625
1760555333743159000,6.517158935546875,-0.997833251953125,-0.016510009765625,-0.015289306640625
1760555333753165000,6.5271650390625,-1.0013427734375,-0.0145263671875,-0.0145263671875
1760555333763171000,6.537171142578125,-0.9959716796875,-0.0201416015625,-0.0159149169921875
1760555333773177000,6.547177001953125,-0.99420166015625,-0.0267181396484375,-0.0162506103515625
1760555333783183000,6.55718310546875,-0.9948577880859375,-0.0288238525390625,-0.01416015625
1760555333793189000,6.567189208984375,-0.993988037109375,-0.027191162109375,-0.0149993896484375
1760555333803195000,6.57719482421875,-0.9951171875,-0.0268402099609375,-0.0125885009765625
1760555333813201200,6.587201171875,-0.9972381591796875,-0.021514892578125,-0.0122528076171875
1760555333823207200,6.597207275390625,-0.9966583251953125,-0.0212860107421875,-0.013031005859375
1760555333833213200,6.607213134765625,-0.9991912841796875,-0.016265869140625,-0.012176513671875
1760555333843219000,6.617218994140625,-1.0009765625,-0.0104217529296875,-0.01275634765625
1760555333853225000,6.627224853515625,-0.998443603515625,-0.0176849365234375,-0.0193023681640625
1760555333863231200,6.637231201171875,-0.999420166015625,-0.0272674560546875,-0.0207977294921875
1760555333873237200,6.6472373046875,-0.9979248046875,-0.0298309326171875,-0.017242431640625
1760555333883243000,6.657242919921875,-0.99346923828125,-0.02825927734375,-0.012603759765625
1760555333893249000,6.6672490234375,-0.9928436279296875,-0.026336669921875,-0.0104522705078125
1760555333903255000,6.677255126953125,-0.9946136474609375,-0.025726318359375,-0.014862060546875
1760555333913261000,6.687260986328125,-0.99945068359375,-0.0242156982421875,-0.0172882080078125
1760555333923267000,6.69726708984375,-1.002593994140625,-0.0196685791015625,-0.0197601318359375
1760555333933273000,6.707273193359375,-0.99847412109375,-0.0188751220703125,-0.018218994140625
1760555333943279000,6.717279052734375,-0.9966888427734375,-0.0205841064453125,-0.0169830322265625
1760555333953284900,6.727284912109375,-0.99676513671875,-0.026214599609375,-0.0189361572265625
1760555333963291100,6.737291015625,-1.0000152587890625,-0.028472900390625,-0.01800537109375
1760555333973298200,6.747298095703125,-0.996917724609375,-0.02838134765625,-0.0160369873046875
1760555333983304000,6.757303955078125,-0.9966583251953125,-0.0326385498046875,-0.007598876953125
1760555333993309000,6.767308837890625,-0.99151611328125,-0.0333099365234375,-0.0001373291015625
1760555334003316200,6.777316162109375,-0.9911041259765625,-0.0319671630859375,0.0025177001953125
1760555334013322200,6.787322265625,-0.9922943115234375,-0.0341644287109375,0.0002899169921875
1760555334023328000,6.797327880859375,-0.994659423828125,-0.0323333740234375,-0.0040435791015625
1760555334033334000,6.807333984375,-0.9986724853515625,-0.0284423828125,-0.0062255859375
1760555334043340000,6.817340087890625,-0.99578857421875,-0.024871826171875,-0.009429931640625
1760555334053346000,6.827345947265625,-0.9971771240234375,-0.0243072509765625,-0.0096588134765625
1760555334063352000,6.83735205078125,-0.996795654296875,-0.0263519287109375,-0.011383056640625
1760555334073358000,6.847358154296875,-0.9971466064453125,-0.021392822265625,-0.0100860595703125
1760555334083364000,6.857364013671875,-0.9999237060546875,-0.0157012939453125,-0.011077880859375
1760555334093369900,6.867369873046875,-0.995697021484375,-0.02264404296875,-0.0152435302734375
1760555334103376100,6.877376220703125,-0.9979248046875,-0.029571533203125,-0.0139617919921875
1760555334113382100,6.887382080078125,-0.993896484375,-0.0282745361328125,-0.0126190185546875
1760555334123388200,6.89738818359375,-0.992706298828125,-0.0258636474609375,-0.014892578125
1760555334133394000,6.907393798828125,-0.996826171875,-0.0230865478515625,-0.0153045654296875
1760555334143400200,6.917400146484375,-0.999786376953125,-0.021575927734375,-0.0175628662109375
1760555334153406200,6.92740625,-0.9999847412109375,-0.0244140625,-0.018341064453125
1760555334163412000,6.937411865234375,-0.9958648681640625,-0.0288848876953125,-0.0117034912109375
1760555334173418000,6.94741796875,-0.990447998046875,-0.0338592529296875,-0.00653076171875
1760555334183424000,6.957424072265625,-0.989227294921875,-0.0324554443359375,-0.00775146484375
1760555334193430300,6.96743017578125,-0.9926910400390625,-0.0276947021484375,-0.008636474609375
1760555334203436000,6.97743603515625,-0.9982147216796875,-0.0200347900390625,-0.0081939697265625
1760555334213442000,6.987442138671875,-1.001068115234375,-0.019287109375,-0.0128021240234375
1760555334223448000,6.997447998046875,-0.9972686767578125,-0.0187530517578125,-0.010223388671875
1760555334233454000,7.0074541015625,-0.9929351806640625,-0.0205841064453125,-0.010223388671875
1760555334243460000,7.017460205078125,-0.9927215576171875,-0.0188140869140625,-0.015777587890625
1760555334253466000,7.027466064453125,-0.9998779296875,-0.009124755859375,-0.01806640625
1760555334263472000,7.03747216796875,-1.0064544677734375,-0.0023193359375,-0.0261383056640625
1760555334273478100,7.04747802734375,-1.006561279296875,-0.002105712890625,-0.030975341796875
1760555334283484200,7.057484130859375,-1.0037384033203125,0.001495361328125,-0.024658203125
1760555334293490200,7.067490234375,-1.002593994140625,0.0024566650390625,-0.0195159912109375
1760555334303496400,7.077496337890625,-1.0041656494140625,0.0014495849609375,-0.0195159912109375
1760555334313502200,7.087502197265625,-1.0023040771484375,-0.0026702880859375,-0.0199127197265625
1760555334323508200,7.09750830078125,-0.9960174560546875,-0.0172882080078125,-0.021240234375
1760555334333514200,7.10751416015625,-0.9896087646484375,-0.032867431640625,-0.019805908203125
1760555334343520500,7.1175205078125,-0.9876251220703125,-0.0273590087890625,-0.01971435546875
1760555334353526300,7.1275263671875,-0.99505615234375,-0.0170440673828125,-0.02392578125
1760555334363532300,7.1375322265625,-1.0053863525390625,-0.0116424560546875,-0.0288238525390625
1760555334373538300,7.147538330078125,-1.002166748046875,-0.0137786865234375,-0.0261688232421875
1760555334383544300,7.15754443359375,-0.9979248046875,-0.018951416015625,-0.02130126953125
1760555334393550300,7.16755029296875,-0.9913330078125,-0.02496337890625,-0.01446533203125
1760555334403556400,7.177556396484375,-0.9904937744140625,-0.0266265869140625,-0.0122833251953125
1760555334413562400,7.187562255859375,-0.9976959228515625,-0.0215911865234375,-0.0093536376953125
1760555334423568100,7.197568115234375,-0.99591064453125,-0.0163421630859375,-0.009063720703125
1760555334433574100,7.20757421875,-1.0030517578125,-0.0119476318359375,-0.0113677978515625
1760555334443580400,7.217580322265625,-0.9979705810546875,-0.013885498046875,-0.0149383544921875
1760555334453586400,7.22758642578125,-0.998291015625,-0.016326904296875,-0.012664794921875
1760555334463592200,7.23759228515625,-0.9977264404296875,-0.016448974609375,-0.0086517333984375
1760555334473598200,7.24759814453125,-0.9935760498046875,-0.0162200927734375,-0.009307861328125
1760555334483604200,7.257604248046875,-0.9980010986328125,-0.017974853515625,-0.0098724365234375
1760555334493610500,7.267610595703125,-0.995513916015625,-0.0162353515625,-0.010986328125
1760555334503616300,7.2776162109375,-1.00128173828125,-0.011932373046875,-0.01312255859375
1760555334513622300,7.287622314453125,-1.0007781982421875,-0.0138397216796875,-0.0081939697265625
1760555334523628300,7.297628173828125,-0.9980926513671875,-0.0174102783203125,-0.002777099609375
1760555334533634300,7.30763427734375,-0.99462890625,-0.018524169921875,-0.000732421875
1760555334543640300,7.317640380859375,-0.992889404296875,-0.0193939208984375,-0.002105712890625
1760555334553646300,7.327646240234375,-0.997894287109375,-0.02288818359375,-0.007781982421875
1760555334563652400,7.33765234375,-0.9941558837890625,-0.0249481201171875,-0.01025390625
1760555334573658000,7.347658203125,-0.994049072265625,-0.0318603515625,-0.0100250244140625
1760555334583664000,7.3576640625,-0.99029541015625,-0.034881591796875,-0.010009765625
1760555334593670400,7.36767041015625,-0.9891204833984375,-0.029083251953125,-0.006256103515625
1760555334603676400,7.377676513671875,-0.9949798583984375,-0.02288818359375,-0.0052947998046875
1760555334613682200,7.38768212890625,-0.9971160888671875,-0.0188751220703125,-0.0063629150390625
1760555334623688200,7.397688232421875,-1.0012054443359375,-0.010772705078125,-0.0104217529296875
1760555334633694200,7.407694091796875,-0.998992919921875,-0.0107879638671875,-0.0131988525390625
1760555334643700500,7.417700439453125,-0.995941162109375,-0.010284423828125,-0.0179595947265625
1760555334653706200,7.427706298828125,-1.000823974609375,-0.0054931640625,-0.0198516845703125
1760555334663712300,7.437712158203125,-1.0023651123046875,-0.0040283203125,-0.021453857421875
1760555334673718300,7.44771826171875,-1.001434326171875,-0.0014801025390625,-0.024688720703125
1760555334683724300,7.457724365234375,-1.0027923583984375,0.00396728515625,-0.0238494873046875
1760555334693730300,7.467730224609375,-1.0034027099609375,0.00567626953125,-0.0247955322265625
1760555334703736300,7.477736328125,-1.0060882568359375,0.0031585693359375,-0.0206298828125
1760555334713742300,7.487742431640625,-1.000335693359375,-0.0025787353515625,-0.0167083740234375
1760555334723748000,7.497748046875,-0.9961395263671875,-0.0164337158203125,-0.0146484375
1760555334733754400,7.50775439453125,-0.9887847900390625,-0.0211029052734375,-0.0187835693359375
1760555334743760400,7.517760498046875,-0.9934844970703125,-0.0177154541015625,-0.0212860107421875
1760555334753766400,7.527766357421875,-0.9986419677734375,-0.018798828125,-0.02777099609375
1760555334763772200,7.537772216796875,-0.9998016357421875,-0.015869140625,-0.0327911376953125
1760555334773778200,7.547778076171875,-0.998016357421875,-0.0140533447265625,-0.0279998779296875
1760555334783784400,7.557784423828125,-0.9951324462890625,-0.01837158203125,-0.0272064208984375
1760555334793790500,7.56779052734375,-0.99517822265625,-0.0205841064453125,-0.027801513671875
1760555334803796200,7.577796142578125,-0.998138427734375,-0.018157958984375,-0.0329132080078125
1760555334813802200,7.58780224609375,-1.0009307861328125,-0.0172119140625,-0.034820556640625
1760555334823808300,7.597808349609375,-0.998291015625,-0.0201568603515625,-0.029541015625
1760555334833814300,7.607814208984375,-0.9944610595703125,-0.0272979736328125,-0.0279693603515625
1760555334843820300,7.6178203125,-0.987548828125,-0.0298614501953125,-0.0308074951171875
1760555334853826300,7.627826416015625,-0.991912841796875,-0.025054931640625,-0.0330810546875
1760555334863832300,7.637832275390625,-1.0039825439453125,-0.01568603515625,-0.03173828125
1760555334873838000,7.647838134765625,-1.001678466796875,-0.0101776123046875,-0.0311126708984375
1760555334883844400,7.65784423828125,-1.00274658203125,-0.0039825439453125,-0.02374267578125
1760555334893850400,7.667850341796875,-1.0035247802734375,-0.0009918212890625,-0.0189971923828125
1760555334903856400,7.6778564453125,-1.000885009765625,-0.0071868896484375,-0.0181884765625
1760555334913862100,7.687862060546875,-0.99871826171875,-0.0181884765625,-0.021209716796875
1760555334923868200,7.6978681640625,-0.9907073974609375,-0.038360595703125,-0.030120849609375
1760555334933874400,7.70787451171875,-0.9822845458984375,-0.05596923828125,-0.035491943359375
1760555334943880200,7.717880126953125,-0.9853057861328125,-0.0459747314453125,-0.02850341796875
1760555334953886200,7.72788623046875,-0.9943084716796875,-0.0258026123046875,-0.022796630859375
1760555334963892200,7.737892333984375,-0.9985198974609375,-0.0197296142578125,-0.023834228515625
1760555334973898200,7.747898193359375,-0.999237060546875,-0.0254058837890625,-0.0265655517578125
1760555334983904300,7.757904296875,-0.9948577880859375,-0.03369140625,-0.023651123046875
1760555334993910300,7.76791015625,-0.9878997802734375,-0.035919189453125,-0.02301025390625
1760555335003916300,7.777916259765625,-0.9893798828125,-0.03240966796875,-0.0233154296875
1760555335013922300,7.78792236328125,-0.9963836669921875,-0.0285797119140625,-0.0251922607421875
1760555335023928300,7.79792822265625,-0.999267578125,-0.02935791015625,-0.0277862548828125
1760555335033934300,7.807934326171875,-0.996673583984375,-0.034454345703125,-0.0262603759765625
1760555335043940400,7.8179404296875,-0.9896392822265625,-0.0331573486328125,-0.023590087890625
1760555335053946400,7.8279462890625,-0.988006591796875,-0.034698486328125,-0.027435302734375
1760555335063952100,7.8379521484375,-0.989715576171875,-0.036346435546875,-0.0312957763671875
1760555335073958400,7.84795849609375,-0.99505615234375,-0.0286102294921875,-0.0357208251953125
1760555335083964400,7.85796435546875,-1.002288818359375,-0.01300048828125,-0.0324249267578125
1760555335093970200,7.86797021484375,-1.0025482177734375,0.0000457763671875,-0.031951904296875
1760555335103976200,7.87797607421875,-1.0043182373046875,-0.00146484375,-0.031982421875
1760555335113982200,7.887982177734375,-0.99853515625,-0.007659912109375,-0.0340728759765625
1760555335123988500,7.897988525390625,-0.9972991943359375,-0.0074615478515625,-0.0354156494140625
1760555335133994200,7.907994140625,-1.0004119873046875,-0.005035400390625,-0.0379486083984375
1760555335144000300,7.918000244140625,-0.9999847412109375,0.0024566650390625,-0.0379486083984375
1760555335154006300,7.92800634765625,-1.0050811767578125,0.0048828125,-0.030853271484375
1760555335164012300,7.93801220703125,-1.0029449462890625,0.0053253173828125,-0.0303802490234375
1760555335174018300,7.948018310546875,-0.9999237060546875,0.0078277587890625,-0.0310821533203125
1760555335184024300,7.9580244140625,-1.0052337646484375,0.0100555419921875,-0.0278167724609375
1760555335194030300,7.9680302734375,-1.0052947998046875,0.0079345703125,-0.0302581787109375
1760555335204036400,7.978036376953125,-1.0025177001953125,0.0050506591796875,-0.0251617431640625
1760555335214042000,7.9880419921875,-0.9992828369140625,-0.01507568359375,-0.017547607421875
1760555335224048400,7.99804833984375,-0.9854278564453125,-0.0240631103515625,-0.023345947265625
1760555335234054400,8.008054443359375,-0.9905242919921875,-0.0299072265625,-0.025726318359375
1760555335244060200,8.01806005859375,-0.9962615966796875,-0.01849365234375,-0.0255889892578125
1760555335254066200,8.028066162109376,-1.0038909912109375,-0.0095672607421875,-0.0281219482421875
1760555335264072200,8.038072265625,-1.0001068115234375,-0.0119781494140625,-0.029510498046875
1760555335274078500,8.048078369140624,-0.994537353515625,-0.019439697265625,-0.029510498046875
1760555335284085000,8.0580849609375,-0.99395751953125,-0.0198822021484375,-0.0333099365234375
1760555335294091000,8.068091064453125,-0.9930572509765625,-0.0206451416015625,-0.0365447998046875
1760555335304097000,8.078096923828125,-0.99615478515625,-0.0334625244140625,-0.0380401611328125
1760555335314102800,8.088102783203125,-0.9937286376953125,-0.0349578857421875,-0.0308990478515625
1760555335324108800,8.09810888671875,-0.988067626953125,-0.02777099609375,-0.027984619140625
1760555335334115000,8.108114990234375,-0.9894561767578125,-0.0208892822265625,-0.03363037109375
1760555335344121000,8.11812109375,-1.00274658203125,-0.0172882080078125,-0.034637451171875
1760555335354126800,8.128126953125,-1.00146484375,-0.016937255859375,-0.0418548583984375
1760555335364132900,8.1381328125,-0.99859619140625,-0.0161285400390625,-0.03857421875
1760555335374139100,8.14813916015625,-0.99273681640625,-0.01300048828125,-0.035552978515625
1760555335384145000,8.158144775390625,-0.9947662353515625,-0.0117950439453125,-0.0376739501953125
1760555335394151000,8.16815087890625,-1.002960205078125,-0.01495361328125,-0.0409698486328125
1760555335404157000,8.178156982421875,-0.9940338134765625,-0.0203399658203125,-0.0444488525390625
1760555335414163000,8.188162841796874,-0.997344970703125,-0.0166778564453125,-0.0413970947265625
1760555335424169000,8.1981689453125,-0.994720458984375,-0.0133056640625,-0.0416412353515625
1760555335434175000,8.208175048828124,-1.00433349609375,-0.0120086669921875,-0.037750244140625
1760555335444181000,8.218180908203125,-0.9972381591796875,-0.01617431640625,-0.0373382568359375
1760555335454187000,8.22818701171875,-0.9951324462890625,-0.016693115234375,-0.0289764404296875
1760555335464192800,8.23819287109375,-0.9975433349609375,-0.0150146484375,-0.0230865478515625
1760555335474199000,8.248198974609375,-0.9954986572265625,-0.0149688720703125,-0.0193939208984375
1760555335484205000,8.258205078125,-1.000213623046875,-0.0166473388671875,-0.018798828125
1760555335494211000,8.268211181640625,-0.9932098388671875,-0.0180511474609375,-0.025054931640625
1760555335504216800,8.278216796875,-0.9994354248046875,-0.0146484375,-0.0254669189453125
1760555335514222800,8.288222900390625,-0.9990234375,-0.015655517578125,-0.029022216796875
1760555335524229000,8.29822900390625,-0.999114990234375,-0.0140838623046875,-0.0306854248046875
1760555335534235000,8.30823486328125,-0.9985504150390625,-0.0143280029296875,-0.0291748046875
1760555335544241000,8.318240966796875,-0.9969635009765625,-0.0162200927734375,-0.0266876220703125
1760555335554247000,8.328246826171876,-0.9988250732421875,-0.0152130126953125,-0.02386474609375
1760555335564253000,8.3382529296875,-0.99639892578125,-0.0126800537109375,-0.025390625
1760555335574259000,8.348259033203124,-1.0012054443359375,-0.01605224609375,-0.020599365234375
1760555335584265000,8.358264892578125,-0.99896240234375,-0.0222320556640625,-0.01318359375
1760555335594271000,8.36827099609375,-0.9922027587890625,-0.0189056396484375,-0.0094146728515625
1760555335604277000,8.378277099609376,-0.9944915771484375,-0.013824462890625,-0.00982666015625
1760555335614282800,8.38828271484375,-0.99737548828125,-0.013397216796875,-0.0177001953125
1760555335624289000,8.3982890625,-1.0040435791015625,-0.0168914794921875,-0.0227813720703125
1760555335634295000,8.408294921875,-0.9984283447265625,-0.0218048095703125,-0.0251922607421875
1760555335644301000,8.418301025390624,-0.9956512451171875,-0.0217742919921875,-0.0211029052734375
1760555335654306800,8.428306884765625,-0.990020751953125,-0.02294921875,-0.02008056640625
1760555335664312800,8.438312744140624,-0.9917144775390625,-0.019866943359375,-0.01983642578125
1760555335674319000,8.448319091796876,-1.003204345703125,-0.0153961181640625,-0.0235443115234375
1760555335684324900,8.458324951171875,-1.00177001953125,-0.015472412109375,-0.02301025390625
1760555335694331000,8.468330810546876,-0.99945068359375,-0.017303466796875,-0.0211334228515625
1760555335704337000,8.4783369140625,-0.9952392578125,-0.0169677734375,-0.019622802734375
1760555335714343200,8.48834326171875,-0.9977569580078125,-0.0155792236328125,-0.017242431640625
1760555335724349000,8.498348876953125,-1.0020294189453125,-0.0163726806640625,-0.0168609619140625
1760555335734355000,8.50835498046875,-0.99847412109375,-0.0129547119140625,-0.0180511474609375
1760555335744361000,8.51836083984375,-1.000274658203125,-0.01422119140625,-0.013092041015625
1760555335754367000,8.528366943359375,-0.994842529296875,-0.0185699462890625,-0.0123138427734375
1760555335764373000,8.538373046875,-0.9900054931640625,-0.0307159423828125,-0.019775390625
1760555335774379000,8.54837890625,-0.9905242919921875,-0.040313720703125,-0.0262298583984375
1760555335784385000,8.558385009765624,-0.995086669921875,-0.0311126708984375,-0.0256195068359375
1760555335794391000,8.56839111328125,-0.99639892578125,-0.02716064453125,-0.0283203125
1760555335804396800,8.578396728515624,-0.9944610595703125,-0.030731201171875,-0.0309906005859375
1760555335814403000,8.588403076171875,-0.9919586181640625,-0.0343170166015625,-0.034942626953125
1760555335824409000,8.5984091796875,-0.993988037109375,-0.03314208984375,-0.035552978515625
1760555335834414800,8.608414794921876,-0.99755859375,-0.0289764404296875,-0.0330352783203125
1760555335844420900,8.6184208984375,-0.994659423828125,-0.026947021484375,-0.0308685302734375
1760555335854427000,8.628427001953124,-0.995697021484375,-0.032623291015625,-0.0312347412109375
1760555335864433200,8.63843310546875,-0.992828369140625,-0.031005859375,-0.0320281982421875
1760555335874439000,8.64843896484375,-0.9926605224609375,-0.033111572265625,-0.0311126708984375
1760555335884445000,8.65844482421875,-0.9924468994140625,-0.0370941162109375,-0.030975341796875
1760555335894451000,8.668450927734375,-0.9926910400390625,-0.0303955078125,-0.0313568115234375
1760555335904457000,8.67845703125,-0.9986419677734375,-0.0196380615234375,-0.0289306640625
1760555335914463000,8.688462890625,-0.9999542236328125,-0.01995849609375,-0.0293426513671875
1760555335924469000,8.698468994140624,-0.9980316162109375,-0.023193359375,-0.032073974609375
1760555335934475000,8.70847509765625,-0.995147705078125,-0.02606201171875,-0.02923583984375
1760555335944480800,8.718480712890624,-0.9954986572265625,-0.0254669189453125,-0.023193359375
1760555335954486800,8.72848681640625,-0.995330810546875,-0.0179901123046875,-0.014923095703125
1760555335964493000,8.7384931640625,-0.9960479736328125,-0.0145263671875,-0.0155181884765625
1760555335974499000,8.7484990234375,-1.0004119873046875,-0.009857177734375,-0.01953125
1760555335984504800,8.7585048828125,-1.0048828125,-0.006622314453125,-0.0191650390625
1760555335994510800,8.7685107421875,-1.0017547607421875,-0.005462646484375,-0.0233917236328125
1760555336004516900,8.778516845703125,-1.0038604736328125,-0.0014495849609375,-0.0191497802734375
1760555336014523100,8.788523193359374,-0.999847412109375,-0.00103759765625,-0.0179443359375
1760555336024529000,8.79852880859375,-0.9983673095703125,-0.0041046142578125,-0.0182647705078125
1760555336034535000,8.808534912109375,-1.0007171630859375,-0.01434326171875,-0.021575927734375
1760555336044541000,8.818541015625,-0.99365234375,-0.02471923828125,-0.0250091552734375
1760555336054547000,8.828546875,-0.9938812255859375,-0.024749755859375,-0.0266571044921875
1760555336064553000,8.838552978515626,-0.9893035888671875,-0.030670166015625,-0.0265960693359375
1760555336074559000,8.84855908203125,-0.9932708740234375,-0.0272674560546875,-0.02764892578125
1760555336084565000,8.85856494140625,-1.00299072265625,-0.019073486328125,-0.0283660888671875
1760555336094570800,8.86857080078125,-0.9952392578125,-0.023223876953125,-0.0281524658203125
1760555336104577000,8.878576904296875,-0.9962615966796875,-0.026824951171875,-0.0251922607421875
1760555336114583000,8.8885830078125,-0.9914703369140625,-0.0241241455078125,-0.020660400390625
1760555336124589000,8.898589111328125,-0.9912872314453125,-0.02569580078125,-0.0189971923828125
1760555336134594800,8.9085947265625,-0.9993133544921875,-0.022186279296875,-0.0145263671875
1760555336144600800,8.918600830078125,-0.9957275390625,-0.0105438232421875,-0.0100555419921875
1760555336154607000,8.928607177734374,-1.00042724609375,-0.0049285888671875,-0.005218505859375
1760555336164613000,8.938613037109375,-0.99871826171875,-0.0075225830078125,-0.0093994140625
1760555336174619000,8.948618896484374,-0.9998779296875,-0.0084381103515625,-0.016387939453125
1760555336184625000,8.958625,-1.002197265625,-0.002288818359375,-0.017822265625
1760555336194631000,8.968630859375,-1.0005645751953125,-0.0020599365234375,-0.0222930908203125
1760555336204637000,8.978636962890626,-0.9996490478515625,-0.0077056884765625,-0.02288818359375
1760555336214643000,8.988642822265625,-0.99725341796875,-0.012176513671875,-0.02288818359375
1760555336224649000,8.99864892578125,-0.997711181640625,-0.0123443603515625,-0.0190277099609375
1760555336234655000,9.008655029296875,-0.99493408203125,-0.0138397216796875,-0.018524169921875
1760555336244660700,9.01866064453125,-0.9942474365234375,-0.013824462890625,-0.0211334228515625
1760555336254667000,9.0286669921875,-1.0019989013671875,-0.014801025390625,-0.017486572265625
1760555336264673000,9.038673095703125,-0.99822998046875,-0.014068603515625,-0.0185699462890625
1760555336274679000,9.048678955078126,-0.9949798583984375,-0.0175018310546875,-0.01873779296875
1760555336284684800,9.058684814453125,-0.9928741455078125,-0.0212554931640625,-0.016265869140625
1760555336294690800,9.06869091796875,-0.9926910400390625,-0.023956298828125,-0.019012451171875
1760555336304696800,9.07869677734375,-0.995269775390625,-0.0260772705078125,-0.0222930908203125
1760555336314702800,9.088702880859374,-0.993896484375,-0.0282135009765625,-0.021148681640625
1760555336324708600,9.09870849609375,-0.9932708740234375,-0.0206146240234375,-0.0244140625
1760555336334715000,9.10871484375,-0.994354248046875,-0.015777587890625,-0.0290985107421875
1760555336344721000,9.118720947265626,-0.999969482421875,-0.015869140625,-0.0303497314453125
1760555336354727000,9.128726806640625,-0.9991607666015625,-0.0200347900390625,-0.0283203125
1760555336364732700,9.138732666015626,-0.9954071044921875,-0.021484375,-0.0215606689453125
1760555336374738700,9.14873876953125,-0.9940948486328125,-0.012908935546875,-0.0162353515625
1760555336384745000,9.158744873046874,-0.9957122802734375,-0.005859375,-0.013153076171875
1760555336394750700,9.168750732421875,-1.001190185546875,-0.0019989013671875,-0.0105438232421875
1760555336404756700,9.1787568359375,-1.004608154296875,0.000640869140625,-0.015960693359375
1760555336414762800,9.1887626953125,-1.0003814697265625,-0.00048828125,-0.018951416015625
1760555336424768800,9.198768798828125,-0.995147705078125,-0.0008392333984375,-0.0198974609375
1760555336434774800,9.20877490234375,-0.9981842041015625,-0.0002593994140625,-0.022613525390625
1760555336444780800,9.21878076171875,-0.99981689453125,-0.0105133056640625,-0.0311737060546875
1760555336454786800,9.228786865234374,-0.9960479736328125,-0.017059326171875,-0.0321044921875
1760555336464792800,9.238792724609375,-0.996734619140625,-0.021514892578125,-0.0270233154296875
1760555336474798600,9.248798583984374,-0.988128662109375,-0.011871337890625,-0.02392578125
1760555336484804900,9.258804931640626,-0.9987030029296875,-0.0030059814453125,-0.0256195068359375
1760555336494811000,9.268810791015625,-1.00390625,-0.006103515625,-0.0263214111328125
1760555336504817000,9.27881689453125,-0.9972991943359375,-0.009613037109375,-0.029632568359375
1760555336514822700,9.28882275390625,-1.0008087158203125,-0.010589599609375,-0.02740478515625
1760555336524828700,9.29882861328125,-0.9914093017578125,-0.014984130859375,-0.0262603759765625
1760555336534835000,9.3088349609375,-0.99163818359375,-0.0177154541015625,-0.026397705078125
1760555336544840700,9.3188408203125,-0.9992218017578125,-0.0093841552734375,-0.0224456787109375
1760555336554846700,9.3288466796875,-1.000335693359375,-0.0075225830078125,-0.026336669921875
1760555336564852700,9.338852783203125,-1.001800537109375,-0.0052642822265625,-0.0302734375
1760555336574859000,9.34885888671875,-0.996551513671875,-0.000946044921875,-0.029052734375
1760555336584864800,9.35886474609375,-1.0014801025390625,-0.0004730224609375,-0.0284576416015625
1760555336594870800,9.368870849609374,-1.0012054443359375,0.0022735595703125,-0.0295867919921875
1760555336604876800,9.378876708984375,-1.000396728515625,0.0047607421875,-0.0269012451171875
1760555336614882800,9.3888828125,-1.0023193359375,0.001800537109375,-0.0253143310546875
1760555336624888800,9.398888916015625,-0.9981689453125,-0.0048828125,-0.018402099609375
1760555336634894800,9.408894775390625,-0.9971923828125,-0.010467529296875,-0.0179443359375
1760555336644900900,9.41890087890625,-0.991729736328125,-0.0124664306640625,-0.0203857421875
1760555336654906600,9.42890673828125,-0.996917724609375,-0.0033416748046875,-0.0204010009765625
1760555336664912600,9.43891259765625,-1.0035247802734375,0.00030517578125,-0.02557373046875
1760555336674919000,9.4489189453125,-1.0009307861328125,-0.0046844482421875,-0.0296173095703125
1760555336684925000,9.458925048828124,-0.9980621337890625,-0.0091094970703125,-0.031280517578125
1760555336694930700,9.4689306640625,-0.992584228515625,-0.01470947265625,-0.0285797119140625
1760555336704936700,9.478936767578125,-0.9936065673828125,-0.02178955078125,-0.0247650146484375
1760555336714942700,9.488942626953126,-0.9935760498046875,-0.024261474609375,-0.023956298828125
1760555336724949000,9.498948974609375,-0.99249267578125,-0.0226593017578125,-0.0227813720703125
1760555336734954800,9.508954833984374,-0.9982452392578125,-0.0185699462890625,-0.0170135498046875
1760555336744960800,9.518960693359375,-0.9953765869140625,-0.0135040283203125,-0.016326904296875
1760555336754966800,9.528966796875,-0.994476318359375,-0.01171875,-0.02001953125
1760555336764972800,9.538972900390625,-0.9984893798828125,-0.0121002197265625,-0.0234832763671875
1760555336774978800,9.548978759765625,-1.0003509521484375,-0.0118560791015625,-0.024322509765625
1760555336784984800,9.55898486328125,-0.9998321533203125,-0.005828857421875,-0.026702880859375
1760555336794990800,9.568990966796875,-0.9990386962890625,-0.006072998046875,-0.02752685546875
1760555336804996600,9.57899658203125,-1.0000762939453125,-0.0015869140625,-0.025390625
1760555336815002600,9.589002685546875,-1.0020751953125,-0.003021240234375,-0.02069091796875
1760555336825009000,9.5990087890625,-0.9977569580078125,-0.003662109375,-0.0165252685546875
1760555336835015000,9.609014892578125,-0.99810791015625,-0.0023956298828125,-0.014556884765625
1760555336845020000,9.61902001953125,-0.9969940185546875,-0.0007476806640625,-0.01312255859375
1760555336855025700,9.629025634765625,-1.00048828125,0.00384521484375,-0.016845703125
1760555336865031700,9.63903173828125,-1.00390625,-0.0081634521484375,-0.0178070068359375
1760555336875037700,9.64903759765625,-0.9948883056640625,-0.016387939453125,-0.024139404296875
1760555336885044000,9.6590439453125,-0.9925537109375,-0.017181396484375,-0.0226898193359375
1760555336895049700,9.6690498046875,-0.9930572509765625,-0.0148468017578125,-0.0247344970703125
1760555336905055700,9.6790556640625,-1.000885009765625,-0.0131378173828125,-0.0228118896484375
1760555336915061800,9.689061767578124,-1.0005645751953125,-0.0138397216796875,-0.02349853515625
1760555336925067800,9.69906787109375,-0.9962158203125,-0.0222930908203125,-0.024810791015625
1760555336935073800,9.70907373046875,-0.9932708740234375,-0.0235137939453125,-0.02178955078125
1760555336945079800,9.719079833984376,-0.9902496337890625,-0.02410888671875,-0.020050048828125
1760555336955085800,9.7290859375,-0.9925994873046875,-0.03564453125,-0.0236968994140625
1760555336965091600,9.739091552734376,-0.98681640625,-0.0502166748046875,-0.0296630859375
1760555336975097900,9.749097900390625,-0.9884796142578125,-0.04034423828125,-0.02789306640625
1760555336985104000,9.759103759765624,-0.9953155517578125,-0.0248870849609375,-0.02215576171875
1760555336995110000,9.76910986328125,-0.99359130859375,-0.02227783203125,-0.025604248046875
1760555337005115600,9.77911572265625,-0.99560546875,-0.028472900390625,-0.0277099609375
1760555337015121700,9.78912158203125,-0.9948577880859375,-0.0322113037109375,-0.027557373046875
1760555337025128000,9.7991279296875,-0.991180419921875,-0.030609130859375,-0.023834228515625
1760555337035134000,9.809134033203126,-0.990234375,-0.022003173828125,-0.0255584716796875
1760555337045139700,9.8191396484375,-0.9968109130859375,-0.011627197265625,-0.0251922607421875
1760555337055145700,9.829145751953124,-1.0047454833984375,-0.0081024169921875,-0.025360107421875
1760555337065151700,9.83915185546875,-1.000274658203125,-0.0096282958984375,-0.0270538330078125
1760555337075157800,9.84915771484375,-0.99676513671875,-0.006805419921875,-0.0246429443359375
1760555337085163800,9.859163818359375,-0.998199462890625,-0.000885009765625,-0.023101806640625
1760555337095169800,9.869169677734375,-1.0015869140625,0.000732421875,-0.0241241455078125
1760555337105175800,9.87917578125,-1.0019378662109375,-0.005859375,-0.0282440185546875
1760555337115181600,9.889181640625,-0.999908447265625,-0.00482177734375,-0.0265960693359375
1760555337125187800,9.899187744140624,-0.998809814453125,-0.009429931640625,-0.0259857177734375
1760555337135193900,9.90919384765625,-0.995086669921875,-0.007049560546875,-0.0294036865234375
1760555337145199900,9.919199951171874,-0.9999847412109375,-0.0042877197265625,-0.0303192138671875
1760555337155205600,9.92920556640625,-0.9983978271484375,-0.018829345703125,-0.0291290283203125
1760555337165211600,9.939211669921875,-0.9919586181640625,-0.025115966796875,-0.0295257568359375
1760555337175218000,9.949218017578126,-0.991180419921875,-0.0218048095703125,-0.025726318359375
1760555337185224000,9.959223876953125,-0.989715576171875,-0.02117919921875,-0.0260009765625
1760555337195229700,9.969229736328124,-0.995941162109375,-0.0229034423828125,-0.0340118408203125
1760555337205235700,9.979235595703125,-1.0014801025390625,-0.02325439453125,-0.0354156494140625
1760555337215241700,9.98924169921875,-0.9983673095703125,-0.0213775634765625,-0.0289306640625
1760555337225247700,9.999247802734375,-0.99267578125,-0.02435302734375,-0.0274200439453125
1760555337235253800,10.009253662109375,-0.9876708984375,-0.013458251953125,-0.0257720947265625
1760555337245259800,10.019259765625,-0.999908447265625,-0.011383056640625,-0.0228424072265625
1760555337255265800,10.029265869140625,-1.0032196044921875,-0.0124969482421875,-0.0274505615234375
1760555337265271800,10.039271728515626,-0.9980621337890625,-0.009979248046875,-0.0276336669921875
1760555337275277800,10.04927783203125,-0.99676513671875,-0.00555419921875,-0.0212860107421875
1760555337285283800,10.059283935546874,-0.995208740234375,0.0021209716796875,-0.0193939208984375
1760555337295289900,10.069289794921875,-1.003997802734375,0.00921630859375,-0.02374267578125
1760555337305295600,10.079295654296875,-1.00628662109375,0.005096435546875,-0.027923583984375
1760555337315301600,10.089301513671876,-0.9989013671875,-0.00244140625,-0.029327392578125
1760555337325307600,10.0993076171875,-0.9969635009765625,-0.0007476806640625,-0.0293731689453125
1760555337335314000,10.10931396484375,-0.99627685546875,0.0052337646484375,-0.027496337890625
1760555337345319700,10.119319580078125,-1.0036163330078125,-0.0026092529296875,-0.0287628173828125
1760555337355325700,10.12932568359375,-0.9984283447265625,-0.0106658935546875,-0.0328826904296875
1760555337365331700,10.139331787109375,-0.992919921875,-0.0095977783203125,-0.034820556640625
1760555337375337700,10.149337646484375,-0.9953155517578125,-0.0036773681640625,-0.032989501953125
1760555337385343700,10.15934375,-1.0000152587890625,-0.004425048828125,-0.03436279296875
1760555337395349800,10.169349853515625,-1.000030517578125,-0.011688232421875,-0.03558349609375
1760555337405355800,10.179355712890626,-0.9972686767578125,-0.0163421630859375,-0.0362701416015625
1760555337415360800,10.18936083984375,-0.991455078125,-0.0177764892578125,-0.0388946533203125
1760555337425366500,10.199366455078126,-0.99298095703125,-0.022857666015625,-0.0357513427734375
1760555337435372500,10.20937255859375,-0.99639892578125,-0.0270538330078125,-0.03369140625
1760555337445378800,10.21937890625,-0.9907073974609375,-0.0238189697265625,-0.035797119140625
1760555337455384800,10.229384765625,-0.9958648681640625,-0.0219268798828125,-0.034423828125
1760555337465390600,10.239390625,-0.9932861328125,-0.0184326171875,-0.0349884033203125
1760555337475396600,10.249396728515626,-0.997314453125,-0.0130462646484375,-0.034759521484375
1760555337485402600,10.259402587890625,-0.9998626708984375,-0.0113372802734375,-0.03375244140625
1760555337495409000,10.269408935546876,-0.9983367919921875,-0.0084991455078125,-0.034454345703125
1760555337505414700,10.27941455078125,-1.0009002685546875,-0.0042877197265625,-0.0334625244140625
1760555337515420700,10.289420654296874,-0.9982147216796875,-0.001373291015625,-0.0311279296875
1760555337525426700,10.2994267578125,-1.0000457763671875,-0.00286865234375,-0.0307159423828125
1760555337535432700,10.3094326171875,-0.998382568359375,-0.0096893310546875,-0.0334930419921875
1760555337545438700,10.319438720703126,-0.9964599609375,-0.010711669921875,-0.0328826904296875
1760555337555444700,10.32944482421875,-0.997039794921875,-0.0128173828125,-0.0331878662109375
1760555337565450800,10.33945068359375,-0.993438720703125,-0.010009765625,-0.032318115234375
1760555337575456500,10.34945654296875,-0.9996185302734375,-0.0089263916015625,-0.0295257568359375
1760555337585462800,10.359462890625,-0.9982452392578125,-0.0107421875,-0.0296630859375
1760555337595468800,10.36946875,-0.9969635009765625,-0.0116119384765625,-0.027587890625
1760555337605474800,10.379474853515624,-0.995361328125,-0.011383056640625,-0.0278472900390625
1760555337615480600,10.38948046875,-0.9941558837890625,-0.01715087890625,-0.0257110595703125
1760555337625486600,10.399486572265625,-0.996185302734375,-0.02197265625,-0.0247650146484375
1760555337635492900,10.409492919921876,-0.994873046875,-0.0162811279296875,-0.024688720703125
1760555337645499000,10.419498779296875,-0.9949798583984375,-0.013916015625,-0.0273590087890625
1760555337655504600,10.429504638671874,-0.998321533203125,-0.0128936767578125,-0.0293426513671875
1760555337665510700,10.4395107421875,-1.0001983642578125,-0.01300048828125,-0.0284271240234375
1760555337675516700,10.4495166015625,-0.9997100830078125,-0.011749267578125,-0.0252838134765625
1760555337685522700,10.459522705078125,-0.9964599609375,-0.0093994140625,-0.02618408203125
1760555337695528700,10.46952880859375,-0.995025634765625,-0.010894775390625,-0.028106689453125
1760555337705534700,10.47953466796875,-0.9991607666015625,-0.0115203857421875,-0.0260162353515625
1760555337715540700,10.489540771484375,-1.001861572265625,-0.0072479248046875,-0.0283203125
1760555337725546500,10.49954638671875,-0.9990386962890625,-0.006134033203125,-0.02484130859375
1760555337735552800,10.509552734375,-0.9970855712890625,-0.0100555419921875,-0.0194549560546875
1760555337745558800,10.519558837890624,-0.99554443359375,-0.0099334716796875,-0.0208892822265625
1760555337755564800,10.529564697265625,-0.9996490478515625,-0.0094757080078125,-0.0220947265625
1760555337765570600,10.539570556640625,-0.9993896484375,-0.009613037109375,-0.020904541015625
1760555337775576600,10.54957666015625,-0.9993743896484375,-0.01007080078125,-0.02142333984375
1760555337785582800,10.559582763671875,-0.9943389892578125,-0.0127410888671875,-0.0251922607421875
1760555337795588600,10.569588623046876,-0.9964752197265625,-0.01654052734375,-0.0244293212890625
1760555337805594600,10.5795947265625,-0.999420166015625,-0.011993408203125,-0.02484130859375
1760555337815600600,10.5896005859375,-0.99761962890625,-0.01446533203125,-0.0247955322265625
1760555337825606700,10.599606689453125,-0.9959869384765625,-0.01446533203125,-0.0238494873046875
1760555337835612700,10.60961279296875,-0.9953155517578125,-0.0132293701171875,-0.0240478515625
1760555337845618700,10.61961865234375,-0.996307373046875,-0.011444091796875,-0.0245361328125
1760555337855624700,10.629624755859375,-1.0003204345703125,-0.0129852294921875,-0.02313232421875
1760555337865630700,10.639630615234376,-0.9976806640625,-0.014556884765625,-0.020263671875
1760555337875636700,10.64963671875,-0.9961395263671875,-0.014739990234375,-0.0157470703125
1760555337885642800,10.659642822265624,-0.9917144775390625,-0.0154266357421875,-0.0178070068359375
1760555337895647700,10.669647705078125,-0.9946441650390625,-0.0185699462890625,-0.017608642578125
1760555337905653800,10.67965380859375,-0.997955322265625,-0.01593017578125,-0.019683837890625
1760555337915659800,10.68965966796875,-0.9998779296875,-0.0087432861328125,-0.016510009765625
1760555337925665500,10.69966552734375,-0.9973907470703125,-0.01080322265625,-0.0118255615234375
1760555337935671800,10.709671875,-0.993316650390625,-0.01214599609375,-0.01373291015625
1760555337945677800,10.719677734375,-0.9993438720703125,-0.00872802734375,-0.018768310546875
1760555337955683600,10.72968359375,-0.999664306640625,-0.0098114013671875,-0.0240631103515625
1760555337965689600,10.739689697265625,-1.00030517578125,-0.00830078125,-0.0228424072265625
1760555337975695600,10.749695556640624,-0.998199462890625,-0.012481689453125,-0.01959228515625
1760555337985702000,10.759701904296875,-0.992462158203125,-0.0189666748046875,-0.018829345703125
1760555337995707600,10.769707763671875,-0.993377685546875,-0.0206451416015625,-0.019317626953125
1760555338005713700,10.779713623046876,-0.99566650390625,-0.0196685791015625,-0.023223876953125
1760555338015719700,10.7897197265625,-0.9993133544921875,-0.01751708984375,-0.019683837890625
1760555338025725700,10.7997255859375,-0.995208740234375,-0.0193939208984375,-0.0231781005859375
1760555338035731700,10.809731689453125,-0.9905548095703125,-0.02252197265625,-0.02587890625
1760555338045737700,10.81973779296875,-0.991668701171875,-0.0218353271484375,-0.028533935546875
1760555338055743700,10.82974365234375,-0.9983673095703125,-0.0199127197265625,-0.0294952392578125
1760555338065749800,10.839749755859375,-1.00103759765625,-0.019744873046875,-0.0261383056640625
1760555338075755500,10.849755615234375,-0.9953765869140625,-0.01885986328125,-0.025787353515625
1760555338085761800,10.85976171875,-0.99261474609375,-0.0190277099609375,-0.0216064453125
1760555338095767800,10.869767822265626,-0.992919921875,-0.01708984375,-0.0193634033203125
1760555338105773600,10.879773681640625,-0.9989776611328125,-0.011932373046875,-0.0215911865234375
1760555338115779600,10.889779541015624,-1.0016326904296875,-0.0046234130859375,-0.0200042724609375
1760555338125785600,10.89978564453125,-1.0020751953125,-0.00115966796875,-0.0209503173828125
1760555338135791900,10.9097919921875,-0.998779296875,-0.0037078857421875,-0.0193328857421875
1760555338145797600,10.919797607421875,-0.9965667724609375,-0.0060882568359375,-0.0177764892578125
1760555338155803600,10.9298037109375,-0.9986572265625,-0.0055389404296875,-0.0179290771484375
1760555338165809700,10.9398095703125,-0.998779296875,-0.0055389404296875,-0.0223846435546875
1760555338175816000,10.94981591796875,-1.0014495849609375,-0.0040740966796875,-0.0220489501953125
1760555338185821700,10.95982177734375,-1.00018310546875,-0.009552001953125,-0.0201416015625
1760555338195827700,10.96982763671875,-0.99017333984375,-0.0112457275390625,-0.021575927734375
1760555338205833700,10.979833740234374,-0.9987945556640625,-0.0022735595703125,-0.0175323486328125
1760555338215839700,10.98983984375,-1.000518798828125,-0.0025787353515625,-0.0186920166015625
1760555338225845800,10.999845703125,-1.0010833740234375,-0.0047760009765625,-0.0214080810546875
1760555338235851800,11.009851806640626,-1.001312255859375,-0.007080078125,-0.0189666748046875
1760555338245857800,11.01985791015625,-0.9930267333984375,-0.014739990234375,-0.0171661376953125
1760555338255863600,11.029863525390626,-0.9921875,-0.0150299072265625,-0.015869140625
1760555338265869600,11.03986962890625,-0.9939422607421875,-0.010040283203125,-0.018768310546875
1760555338275875800,11.049875732421874,-1.0013275146484375,-0.0087432861328125,-0.01959228515625
1760555338285881000,11.059881103515625,-1.0010223388671875,-0.003631591796875,-0.0215911865234375
1760555338295886000,11.069885986328124,-0.9992828369140625,-0.0007171630859375,-0.0224151611328125
1760555338305892000,11.07989208984375,-0.9980316162109375,-0.0048370361328125,-0.0214385986328125
1760555338315897900,11.08989794921875,-0.9975738525390625,-0.00372314453125,-0.022705078125
1760555338325904100,11.099904052734376,-1.000701904296875,-0.0032958984375,-0.0251922607421875
1760555338335910100,11.10991015625,-1.0004425048828125,-0.00482177734375,-0.0254058837890625
1760555338345916200,11.119916259765626,-0.9995880126953125,-0.0054779052734375,-0.0242767333984375
1760555338355922000,11.129921875,-0.9967041015625,-0.0038299560546875,-0.01947021484375
1760555338365928000,11.139927978515624,-0.99481201171875,-0.0059967041015625,-0.0189666748046875
1760555338375934200,11.149934326171875,-0.9989776611328125,-0.005279541015625,-0.0217742919921875
1760555338385940000,11.15993994140625,-1.000823974609375,-0.004425048828125,-0.0240325927734375
1760555338395946000,11.169946044921875,-1,-0.0087127685546875,-0.024078369140625
1760555338405952000,11.179951904296875,-0.9974517822265625,-0.0127105712890625,-0.0255889892578125
1760555338415958000,11.1899580078125,-0.9949188232421875,-0.013885498046875,-0.024169921875
1760555338425964000,11.199964111328125,-0.9966583251953125,-0.017547607421875,-0.022369384765625
1760555338435970000,11.209969970703124,-0.9965362548828125,-0.019378662109375,-0.0228271484375
1760555338445976000,11.21997607421875,-0.99542236328125,-0.0195159912109375,-0.0236663818359375
1760555338455982000,11.229982177734374,-0.99261474609375,-0.0224456787109375,-0.0229339599609375
1760555338465987800,11.23998779296875,-0.9954376220703125,-0.0218505859375,-0.022125244140625
1760555338475994000,11.249994140625,-0.9961395263671875,-0.0182342529296875,-0.0232696533203125
1760555338486000000,11.260000244140626,-0.9977874755859375,-0.0130767822265625,-0.023284912109375
1760555338496006000,11.270005859375,-0.9999847412109375,-0.0142822265625,-0.02264404296875
1760555338506012000,11.280011962890624,-0.995452880859375,-0.0169830322265625,-0.0230255126953125
1760555338516018200,11.29001806640625,-0.9939117431640625,-0.0152740478515625,-0.0202484130859375
1760555338526024200,11.300024169921874,-0.99468994140625,-0.0113983154296875,-0.01983642578125
1760555338536030000,11.310030029296875,-0.9994354248046875,-0.006378173828125,-0.020721435546875
1760555338546036000,11.320035888671875,-1.0042724609375,-0.00408935546875,-0.0229949951171875
1760555338556042000,11.3300419921875,-1.001617431640625,-0.00665283203125,-0.0203094482421875
1760555338566048300,11.34004833984375,-0.998321533203125,-0.005462646484375,-0.0167999267578125
1760555338576054000,11.350053955078126,-0.994110107421875,-0.0041656494140625,-0.0164947509765625
1760555338586060000,11.36006005859375,-0.996826171875,-0.00836181640625,-0.0189208984375
1760555338596066000,11.370066162109374,-1.000885009765625,-0.0104827880859375,-0.0208282470703125
1760555338606072000,11.380072021484375,-1.0013427734375,-0.0106964111328125,-0.0196380615234375
1760555338616078000,11.390078125,-0.9956817626953125,-0.0089111328125,-0.018798828125
1760555338626084000,11.400083984375,-0.9937286376953125,-0.00762939453125,-0.0211181640625
1760555338636090000,11.410090087890625,-0.998260498046875,-0.0113983154296875,-0.0215911865234375
1760555338646096000,11.420095947265626,-0.9993896484375,-0.01605224609375,-0.0225982666015625
1760555338656102000,11.430101806640625,-0.9982147216796875,-0.01373291015625,-0.02081298828125
1760555338666107000,11.44010693359375,-0.9933013916015625,-0.0150604248046875,-0.02032470703125
1760555338676113200,11.450113037109375,-0.993865966796875,-0.0179290771484375,-0.0196075439453125
1760555338686119200,11.460119140625,-0.9965057373046875,-0.0184173583984375,-0.019775390625
1760555338696125000,11.470125,-0.997711181640625,-0.0151824951171875,-0.0206146240234375
1760555338706131000,11.480130859375,-0.999755859375,-0.01629638671875,-0.0204010009765625
1760555338716137000,11.490136962890626,-0.996856689453125,-0.0160980224609375,-0.019195556640625
1760555338726143200,11.500143310546875,-0.9938201904296875,-0.014801025390625,-0.019378662109375
1760555338736149000,11.51014892578125,-0.9977874755859375,-0.0115966796875,-0.0208740234375
1760555338746155000,11.520155029296875,-0.9991302490234375,-0.01239013671875,-0.021636962890625
1760555338756161000,11.5301611328125,-1.0015716552734375,-0.0121917724609375,-0.0216064453125
1760555338766167000,11.5401669921875,-0.9980926513671875,-0.0108184814453125,-0.0202789306640625
1760555338776173000,11.550173095703125,-0.9947509765625,-0.00775146484375,-0.0194244384765625
1760555338786179000,11.560178955078126,-0.99884033203125,-0.0041046142578125,-0.0200042724609375
1760555338796185000,11.57018505859375,-1.0035858154296875,-0.00799560546875,-0.0190582275390625
1760555338806190800,11.58019091796875,-0.9993896484375,-0.0127410888671875,-0.0207061767578125
1760555338816196900,11.59019677734375,-0.99627685546875,-0.01177978515625,-0.017242431640625
1760555338826203100,11.600203125,-0.9938812255859375,-0.007415771484375,-0.01678466796875
1760555338836209200,11.610209228515625,-0.996734619140625,-0.0143890380859375,-0.0237884521484375
1760555338846215000,11.62021484375,-0.998809814453125,-0.0206451416015625,-0.026702880859375
1760555338856221000,11.630220947265625,-0.999969482421875,-0.014434814453125,-0.023651123046875
1760555338866227200,11.640227294921875,-0.9935150146484375,-0.01605224609375,-0.0202789306640625
1760555338876233200,11.650233154296876,-0.9933929443359375,-0.0179290771484375,-0.0171051025390625
1760555338886239000,11.660239013671875,-0.9948577880859375,-0.0244598388671875,-0.0227508544921875
1760555338896245000,11.670244873046874,-0.9950714111328125,-0.02557373046875,-0.0254974365234375
1760555338906251000,11.6802509765625,-1.0002288818359375,-0.0186767578125,-0.0238800048828125
1760555338916257000,11.690257080078124,-0.99249267578125,-0.02093505859375,-0.02642822265625
1760555338926263000,11.700262939453125,-0.993377685546875,-0.0241241455078125,-0.0272979736328125
1760555338936269000,11.71026904296875,-0.9987335205078125,-0.0259552001953125,-0.0285491943359375
1760555338946275000,11.720275146484376,-0.9942779541015625,-0.0270843505859375,-0.026336669921875
1760555338956280800,11.73028076171875,-0.99652099609375,-0.0234222412109375,-0.024383544921875
1760555338966287000,11.740287109375,-0.9916839599609375,-0.02239990234375,-0.0225372314453125
1760555338976293000,11.750293212890625,-0.993927001953125,-0.021240234375,-0.0226898193359375
1760555338986298000,11.760298095703124,-0.9959564208984375,-0.0185546875,-0.0233154296875
1760555338996304100,11.77030419921875,-0.9984588623046875,-0.0133056640625,-0.02520751953125
1760555339006310000,11.780309814453124,-1.00067138671875,-0.0087890625,-0.0246734619140625
1760555339016316000,11.79031591796875,-0.9999847412109375,-0.003997802734375,-0.0249176025390625
1760555339026322200,11.800322265625,-1.0003204345703125,-0.0045013427734375,-0.025482177734375
1760555339036328200,11.810328125,-1.00048828125,-0.00482177734375,-0.0240631103515625
1760555339046334000,11.820333984375,-1.001007080078125,-0.0049591064453125,-0.025146484375
1760555339056340000,11.830340087890624,-1.0001373291015625,-0.0084686279296875,-0.022430419921875
1760555339066346000,11.840345947265625,-0.99591064453125,-0.0131683349609375,-0.0196990966796875
1760555339076352000,11.85035205078125,-0.9946441650390625,-0.0156402587890625,-0.0195465087890625
1760555339086358000,11.86035791015625,-0.9961090087890625,-0.0135040283203125,-0.021209716796875
1760555339096364000,11.870364013671875,-0.9986572265625,-0.0162200927734375,-0.0233001708984375
1760555339106370000,11.8803701171875,-0.9972686767578125,-0.0171661376953125,-0.02423095703125
1760555339116375800,11.890375732421875,-0.9963226318359375,-0.0209197998046875,-0.02337646484375
1760555339126382000,11.900382080078124,-0.993377685546875,-0.01849365234375,-0.0221405029296875
1760555339136388000,11.91038818359375,-0.9940338134765625,-0.0149993896484375,-0.0232086181640625
1760555339146394000,11.92039404296875,-0.99920654296875,-0.0173492431640625,-0.0253143310546875
1760555339156399900,11.93039990234375,-1.0006561279296875,-0.02044677734375,-0.0225372314453125
1760555339166406100,11.94040625,-0.9931640625,-0.0246734619140625,-0.024627685546875
1760555339176412200,11.950412109375,-0.9908599853515625,-0.0224456787109375,-0.024169921875
1760555339186418200,11.960418212890625,-0.99456787109375,-0.01959228515625,-0.02276611328125
1760555339196424000,11.970423828125,-0.9979705810546875,-0.0197296142578125,-0.0237579345703125
1760555339206430000,11.980429931640625,-1.0011138916015625,-0.01593017578125,-0.02325439453125
1760555339216436200,11.990436279296874,-0.99700927734375,-0.0137481689453125,-0.0236663818359375
1760555339226442000,12.00044189453125,-0.9955902099609375,-0.0148468017578125,-0.0233917236328125
1760555339236448000,12.010447998046875,-0.996429443359375,-0.01458740234375,-0.0233917236328125
1760555339246454000,12.0204541015625,-0.9976959228515625,-0.014434814453125,-0.0223388671875
1760555339256460000,12.0304599609375,-1.0018463134765625,-0.0099029541015625,-0.017608642578125
1760555339266466000,12.040466064453126,-0.999176025390625,-0.0041961669921875,-0.0149078369140625
1760555339276472000,12.05047216796875,-0.9977874755859375,-0.00335693359375,-0.0146636962890625
1760555339286478600,12.060478515625,-0.9999542236328125,-0.0076446533203125,-0.0211944580078125
1760555339296484400,12.070484375,-0.997406005859375,-0.013671875,-0.026123046875
1760555339306490400,12.080490478515625,-0.9980316162109375,-0.0177001953125,-0.02606201171875
1760555339316495400,12.090495361328125,-0.9952545166015625,-0.0151824951171875,-0.024810791015625
1760555339326501400,12.10050146484375,-0.996673583984375,-0.009552001953125,-0.0200042724609375
1760555339336507400,12.11050732421875,-0.9989013671875,-0.0102691650390625,-0.01837158203125
1760555339346513400,12.120513427734375,-0.9983673095703125,-0.0079803466796875,-0.0193023681640625
1760555339356519400,12.13051953125,-1.0020294189453125,-0.0101318359375,-0.0165863037109375
1760555339366525400,12.140525390625,-0.99591064453125,-0.0122833251953125,-0.015655517578125
1760555339376531500,12.150531494140624,-0.9948272705078125,-0.013702392578125,-0.0135040283203125
1760555339386537200,12.160537109375,-0.994781494140625,-0.0141754150390625,-0.01513671875
1760555339396543500,12.17054345703125,-0.99603271484375,-0.0130462646484375,-0.019378662109375
1760555339406549500,12.180549560546876,-1,-0.013702392578125,-0.0219268798828125
1760555339416555500,12.190555419921875,-0.9979400634765625,-0.0127105712890625,-0.0235137939453125
1760555339426561300,12.200561279296876,-0.9977874755859375,-0.012054443359375,-0.021209716796875
1760555339436567300,12.2105673828125,-0.994659423828125,-0.01446533203125,-0.0207061767578125
1760555339446573600,12.220573486328124,-0.9968109130859375,-0.010345458984375,-0.022918701171875
1760555339456579300,12.230579345703125,-1.0004730224609375,-0.013031005859375,-0.021148681640625
1760555339466585300,12.24058544921875,-0.9995880126953125,-0.013031005859375,-0.024871826171875
1760555339476591400,12.25059130859375,-0.9973297119140625,-0.01373291015625,-0.0217437744140625
1760555339486597400,12.260597412109375,-0.994903564453125,-0.0189208984375,-0.022186279296875
1760555339496603400,12.270603271484376,-0.994476318359375,-0.0180206298828125,-0.0228118896484375
1760555339506609400,12.280609375,-0.9985809326171875,-0.0138702392578125,-0.02142333984375
1760555339516615400,12.290615478515624,-0.9972076416015625,-0.01202392578125,-0.020111083984375
1760555339526621400,12.300621337890625,-0.994659423828125,-0.01837158203125,-0.02264404296875
1760555339536627200,12.310627197265624,-0.993133544921875,-0.0207977294921875,-0.0200653076171875
1760555339546633500,12.320633544921876,-0.993072509765625,-0.0196990966796875,-0.0225067138671875
1760555339556639500,12.330639404296875,-0.9959716796875,-0.01654052734375,-0.0222625732421875
1760555339566645500,12.3406455078125,-0.9976806640625,-0.016265869140625,-0.0222930908203125
1760555339576651300,12.3506513671875,-0.9961090087890625,-0.0164031982421875,-0.0216064453125
1760555339586656300,12.36065625,-0.9960174560546875,-0.01513671875,-0.021087646484375
1760555339596662500,12.37066259765625,-0.99615478515625,-0.014190673828125,-0.020965576171875
1760555339606668500,12.38066845703125,-1.00006103515625,-0.010894775390625,-0.0210113525390625
1760555339616674300,12.39067431640625,-0.9998931884765625,-0.0101318359375,-0.0213623046875
1760555339626680300,12.400680419921875,-0.9945831298828125,-0.01361083984375,-0.020111083984375
1760555339636686300,12.410686279296876,-0.9945220947265625,-0.01397705078125,-0.0201873779296875
1760555339646692600,12.420692626953125,-0.9963836669921875,-0.0093994140625,-0.0229339599609375
1760555339656698400,12.430698486328126,-1.000885009765625,-0.006317138671875,-0.0230255126953125
1760555339666704400,12.440704345703125,-1.00250244140625,-0.0080413818359375,-0.023956298828125
1760555339676710400,12.45071044921875,-0.9981536865234375,-0.014495849609375,-0.0242919921875
1760555339686716400,12.46071630859375,-0.9925537109375,-0.019561767578125,-0.0220489501953125
1760555339696722400,12.470722412109374,-0.9921112060546875,-0.015625,-0.017822265625
1760555339706728400,12.480728515625,-0.9961395263671875,-0.014495849609375,-0.0190887451171875
1760555339716734500,12.490734375,-0.9981842041015625,-0.0163726806640625,-0.02215576171875
1760555339726740500,12.500740478515626,-0.99798583984375,-0.0156402587890625,-0.02362060546875
1760555339736746200,12.510746337890625,-0.9938201904296875,-0.0187225341796875,-0.025787353515625
1760555339746752500,12.52075244140625,-0.9919891357421875,-0.016754150390625,-0.02716064453125
1760555339756758500,12.530758544921875,-0.9994354248046875,-0.0149383544921875,-0.02911376953125
1760555339766764300,12.540764404296874,-1.000762939453125,-0.016387939453125,-0.027496337890625
1760555339776770300,12.550770263671875,-0.996551513671875,-0.0218353271484375,-0.025115966796875
1760555339786776300,12.5607763671875,-0.991058349609375,-0.0195465087890625,-0.0239715576171875
1760555339796782600,12.570782470703126,-0.9946136474609375,-0.0152587890625,-0.021453857421875
1760555339806788400,12.580788330078125,-0.9964141845703125,-0.01361083984375,-0.0277862548828125
1760555339816794400,12.59079443359375,-1.0010833740234375,-0.013671875,-0.02813720703125
1760555339826800400,12.60080029296875,-0.9996337890625,-0.0101776123046875,-0.02972412109375
1760555339836806400,12.610806396484374,-0.9957427978515625,-0.0048828125,-0.02874755859375
1760555339846812400,12.6208125,-0.9984588623046875,-0.0020904541015625,-0.02801513671875
1760555339856818400,12.630818359375,-1.00103759765625,-0.00262451171875,-0.0289459228515625
1760555339866824400,12.640824462890626,-1.003448486328125,-0.0025634765625,-0.0299835205078125
1760555339876830500,12.65083056640625,-1.000274658203125,-0.00164794921875,-0.0260772705078125
1760555339886835500,12.66083544921875,-0.9987335205078125,-0.0042266845703125,-0.0287628173828125
1760555339896841500,12.670841552734375,-0.9959259033203125,-0.00640869140625,-0.026947021484375
1760555339906847500,12.680847412109374,-0.9988861083984375,-0.0064849853515625,-0.027252197265625
1760555339916853500,12.690853515625,-0.999847412109375,-0.007293701171875,-0.0283355712890625
1760555339926859300,12.700859375,-1.000274658203125,-0.00274658203125,-0.027923583984375
1760555339936865300,12.710865234375,-0.9984893798828125,-0.0091552734375,-0.0235443115234375
1760555339946871600,12.72087158203125,-0.9918365478515625,-0.019866943359375,-0.0247650146484375
1760555339956877600,12.730877685546876,-0.992645263671875,-0.01495361328125,-0.0222930908203125
1760555339966883300,12.74088330078125,-0.9967803955078125,-0.0139617919921875,-0.0218658447265625
1760555339976889300,12.750889404296874,-0.9946441650390625,-0.01409912109375,-0.02685546875
1760555339986895400,12.760895263671875,-0.9969329833984375,-0.01611328125,-0.0296630859375
1760555339996901600,12.770901611328124,-0.996185302734375,-0.0148162841796875,-0.0256195068359375
1760555340006907400,12.780907470703125,-0.996124267578125,-0.0130462646484375,-0.0207672119140625
1760555340016913400,12.790913330078125,-0.99383544921875,-0.01434326171875,-0.019012451171875
1760555340026919400,12.80091943359375,-0.9962158203125,-0.0117034912109375,-0.01666259765625
1760555340036925400,12.810925537109375,-0.99957275390625,-0.0094451904296875,-0.020111083984375
