time,seconds_elapsed,z,y,x
1760555327303004700,0.077004638671875,0.04552724094390869,-0.058109165950957685,-0.001880169457104057
1760555327313010700,0.0870107421875,0.026577041280269623,-0.03986453900709748,0.050985853409674015
1760555327323016700,0.0970166015625,0.0569464605808258,-0.030972280564531683,0.07029321421422063
1760555327333022700,0.107022705078125,0.04494505714178085,-0.030541725393850354,0.09918055999716743
1760555327343028500,0.117028564453125,0.016395839005708693,-0.011076561945397407,0.07336825601169839
1760555327353034800,0.12703466796875,0.02768938643634319,-0.024469164014514534,0.04805264950199052
1760555327363041500,0.13704150390625,-0.012055763974785805,0.03539952242225408,0.06032976460987702
1760555327373047600,0.147047607421875,0.046157940062880515,0.05633974512564018,0.06864990398660302
1760555327383053800,0.1570537109375,-0.0002624503284692764,0.050155193005502224,0.11139792600814252
1760555327393059800,0.167059814453125,0.04446165753901005,0.01217374606495723,0.09700844012247398
1760555327403065600,0.177065673828125,0.005256020832061767,0.009131400960683822,0.04896833957480266
1760555327413071600,0.187071533203125,-0.010438976427912711,0.02146311406632885,0.06480093694087118
1760555327423077600,0.19707763671875,0.04701718724071979,-0.01531385245528072,0.06416873998455704
1760555327433083600,0.207083740234375,0.018260463833808898,-0.013737743978668003,0.06575686769252642
1760555327443090700,0.217090576171875,0.04876958386600017,-0.016623565080668777,0.06257712341155856
1760555327453096700,0.2270966796875,0.026796821510791775,-0.028105821750126776,0.03690775329442694
1760555327463102500,0.2371025390625,0.040625440376996995,-0.05345304724080488,0.051161520503833886
1760555327473108700,0.247108642578125,0.03440788103640079,-0.0690133122052066,0.06210106686502695
1760555327483114800,0.25711474609375,0.026215222230553625,-0.01876368238190189,0.08361536312932148
1760555327493120800,0.267120849609375,0.03534545414745807,-0.014649561593960969,0.09592238018512725
1760555327503126500,0.27712646484375,0.027855975174903867,0.025399193139933048,0.06795826846063137
1760555327513132500,0.287132568359375,-0.010729483807086944,0.030821894042100756,0.053317766955960536
1760555327523138800,0.297138916015625,-0.023104396733641622,0.046814029351435596,0.03966273282468319
1760555327533144800,0.307144775390625,-0.01018938558101654,0.037574948498886075,0.03557308889087289
1760555327543151600,0.317151611328125,0.027666590082645416,0.009393705158680677,0.07528782589742913
1760555327553157600,0.32715771484375,0.023430559948086738,0.02396519654775038,0.10011321947108953
1760555327563163600,0.33716357421875,0.02426175007522106,0.02859873809991404,0.09455649865940213
1760555327573169700,0.347169677734375,0.001315174251794815,0.058702875794097775,0.08560931342551484
1760555327583175700,0.35717578125,-0.02191197207868099,0.0401947938747704,0.05364314471911639
1760555327593181700,0.367181640625,0.022053426375985143,0.031471316127851603,0.05139563978696242
1760555327603187500,0.3771875,0.005102291575074196,0.013898743226658553,0.08670311827789992
1760555327613193700,0.38719384765625,0.022547931894659996,-0.006233761556725948,0.07702518935035914
1760555327623200800,0.39720068359375,0.01740297022163868,-0.008243475677631795,0.07783394844997674
1760555327633206500,0.40720654296875,0.050288171735405916,-0.03928626419510692,0.07428549872078001
1760555327643212500,0.417212646484375,0.04458382261395454,-0.03939430941315367,0.06775821584388614
1760555327653218800,0.42721875,0.03380056279301643,-0.055738016372825945,0.07217409605737775
1760555327663224600,0.437224609375,0.0448556252926588,-0.031076672520767897,0.06593501900471746
1760555327673230600,0.447230712890625,0.01655073730647564,-0.012805340233072638,0.05757619158541783
1760555327683236600,0.457236572265625,0.03570025893449783,0.0044913383361883455,0.053630047775525595
1760555327693242600,0.46724267578125,0.013569675669074058,-0.014994319911021738,0.04861490476094186
1760555327703248600,0.47724853515625,0.018078093004226685,-0.012594784488622099,0.041478531808685506
1760555327713255700,0.487255615234375,0.02361176173388958,0.013237301909551023,0.06923659956706688
1760555327723261700,0.49726171875,0.0035427871733903884,0.022590072269644587,0.06588643062263727
1760555327733267500,0.507267333984375,0.032115386185050006,-0.012019231356680392,0.04607152215475216
1760555327743273700,0.517273681640625,0.018351064726710317,0.002572937494236976,0.07239747475078329
1760555327753279700,0.52727978515625,0.015504443123936652,0.041893341420963404,0.08367072831206024
1760555327763285800,0.53728564453125,0.0015513210952281952,0.038042218950763346,0.08557999599948525
1760555327773291500,0.54729150390625,0.031279519882798194,0.021522589168604462,0.07454846050590276
1760555327783297800,0.5572978515625,0.025698504880070683,0.013571867626160382,0.07486037599928677
1760555327793303800,0.5673037109375,0.0137029466599226,-0.012699651368893682,0.062246777212340385
1760555327803310600,0.577310546875,0.028967151287198064,-0.027674280198756604,0.0447060790204443
1760555327813316600,0.587316650390625,0.04587853859961032,-0.057490394731797276,0.06381596275782213
1760555327823323000,0.597322998046875,0.061281274914741515,-0.03099840138647705,0.06744021766958758
1760555327833328600,0.60732861328125,0.0038087446331977843,0.00031065511805936693,0.06192819451615214
1760555327843334700,0.617334716796875,0.03897591960430145,-0.015470102462917565,0.057866534567810594
1760555327853340700,0.627340576171875,0.026729016971588134,-0.01769678380275145,0.06850812089573592
1760555327863346700,0.6373466796875,0.03901332900524139,-0.025256533266231417,0.06441668686363845
1760555327873352700,0.647352783203125,0.043513563033938406,-0.036422691457532345,0.06186607079906389
1760555327883358700,0.657358642578125,0.033497195932269096,-0.031611948441248386,0.0443965198809281
1760555327893365500,0.667365478515625,0.013919219759106635,0.012267214768379926,0.055009647299349304
1760555327903371500,0.67737158203125,0.026240941193699834,-0.0065049431809224185,0.039692214647494256
1760555327913377800,0.687377685546875,0.03990764749646187,-0.06345067310938611,0.04349694069270044
1760555327923383800,0.6973837890625,0.02377601238489151,-0.017177856228873134,0.05977004836788401
1760555327933389600,0.7073896484375,0.022898645028471946,0.032690683588664976,0.07951437581758945
1760555327943395600,0.7173955078125,-0.006560673689842224,0.041227223928738385,0.06426096657896414
1760555327953401600,0.727401611328125,0.008727496334910392,0.017045334156695752,0.06675998032046482
1760555327963408000,0.737407958984375,0.024891280150413513,0.026253216153383253,0.07903550625946372
1760555327973413600,0.74741357421875,0.022487726140022278,0.016504541810881346,0.085865827203542
1760555327983420700,0.757420654296875,0.02860650128126144,0.0007768661240115762,0.05591868843566626
1760555327993426700,0.7674267578125,-0.00044423663616180415,0.03026983138360083,0.06651641735555604
1760555328003432700,0.7774326171875,-0.006132803666591644,0.03417712275413796,0.04710378781193867
1760555328013438700,0.787438720703125,0.032929040655493735,-0.003633862990327179,0.04419721618285402
1760555328023444700,0.79744482421875,0.025305121648311613,-0.019086027937754987,0.05729799569854512
1760555328033450500,0.807450439453125,0.04416355137526989,-0.025660985881276428,0.047923579762224104
1760555328043456500,0.81745654296875,0.015576339316368102,0.015116484985966235,0.06360816522603854
1760555328053462800,0.827462890625,0.0004576806396245956,0.03491835130918771,0.08125771235357969
1760555328063468800,0.83746875,0.005095277312397957,0.01564428998604417,0.061169101510848846
1760555328073475600,0.8474755859375,0.010483400091528892,0.011960066781658679,0.04984797195354476
1760555328083481600,0.857481689453125,0.005850479593873023,0.022745098434574902,0.04036739222900942
1760555328093487600,0.867487548828125,0.025762802287936207,0.017285828381683677,0.03742746631959453
1760555328103493600,0.87749365234375,0.02486789927482605,-0.0013894998633302747,0.040685500001162285
1760555328113499600,0.887499755859375,0.013349895438551902,0.03746385280722752,0.03364959174869582
1760555328123505700,0.897505615234375,0.005132686713337898,0.05168397347535938,0.07652377916686236
1760555328133511400,0.907511474609375,0.03161678901314735,0.019153028759360313,0.09042926266156137
1760555328143517700,0.917517578125,0.03502747423946857,0.0038383908527903255,0.08529166231108828
1760555328153523700,0.927523681640625,0.037514030358195304,0.003818261380214244,0.08326002861931919
1760555328163530500,0.937530517578125,0.009926935252547264,0.009860719882231205,0.08273328306516632
1760555328173536800,0.947536865234375,0.005399228695034981,0.02306441178312525,0.07457613396411761
1760555328183542800,0.957542724609375,-0.0009282207608222961,0.051232412049267435,0.05820128294751048
1760555328193548800,0.967548828125,0.015782675543427466,0.025902667416352776,0.040759113226644696
1760555328203554600,0.977554443359375,0.00886485897898674,0.005609272982832044,0.03945301733044907
1760555328213560600,0.987560546875,0.013045944055914879,-0.038862869417574254,0.03197141113709658
1760555328223566800,0.99756689453125,0.05045592951774597,-0.06032256768411025,0.025011728192307053
1760555328233572600,1.007572509765625,0.02308101585805416,-0.04912769485497847,0.05355468098437413
1760555328243578600,1.01757861328125,0.06514671817123889,-0.06887372107142582,0.05930615718318149
1760555328253585700,1.027585693359375,0.052901569104194635,-0.056900867873430246,0.09091801429288461
1760555328263591700,1.037591796875,0.03453063063323498,-0.07279306820593774,0.08212633014796301
1760555328273597700,1.04759765625,0.052362639921903605,-0.07070424270052462,0.06505796217555179
1760555328283603500,1.057603515625,0.020523148068785666,-0.025894027452170846,0.04978522718194872
1760555328293609500,1.067609375,0.036138650351762766,-0.013276757137104868,0.028202724519651383
1760555328303615500,1.077615478515625,0.008080430603027343,0.00828718695519492,0.03988781028483063
1760555328313621500,1.08762158203125,0.03734042735695839,-0.02784658629205078,0.02380114682614803
1760555328323627500,1.09762744140625,0.029342414340376852,-0.0354603857640177,0.03127740099094808
1760555328333633500,1.107633544921875,0.016553075394034385,-0.004384242966212332,0.047270888007152824
1760555328343640600,1.117640625,0.011536708536744118,0.035024935222510246,0.053140437627676874
1760555328353646600,1.127646484375,-0.014275778111815452,0.05640444439230487,0.06892296704063192
1760555328363652400,1.13765234375,0.00585457124710083,0.004810195027012377,0.0516365358707495
1760555328373658400,1.147658447265625,0.030624270844459532,-0.019892869074922055,0.045872072326205666
1760555328383664400,1.157664306640625,0.030239070919156074,-0.00914502762723714,0.07101338171493261
1760555328393670700,1.167670654296875,0.014120879811048507,0.06164281996982172,0.07272930052103474
1760555328403676400,1.177676513671875,0.005935819789767265,0.058601753507182,0.03155419037202373
1760555328413682400,1.187682373046875,0.006155600020289421,0.017225823556445537,0.047389436352904886
1760555328423688400,1.1976884765625,0.023458616998791693,-0.018374683064315465,0.027391700397711244
1760555328433694500,1.207694580078125,0.03971650883853435,-0.046464722723420705,0.034089444470684974
1760555328443701500,1.217701416015625,0.06194120012819767,-0.05985814677644521,0.03951667541749775
1760555328453707500,1.22770751953125,0.03850362591743469,0.004406089471839368,0.05757167980708182
1760555328463713300,1.23771337890625,0.010885551151633262,0.049306211493350564,0.07839223991986363
1760555328473719300,1.24771923828125,0.03820376618802547,0.009142835670150815,0.07642194449389353
1760555328483725600,1.2577255859375,0.027356793481111526,-0.05303984506372362,0.07122050339328125
1760555328493731600,1.267731689453125,0.05569675278067589,-0.05223079370316118,0.09185107562560588
1760555328503737300,1.2777373046875,0.056359016081690784,-0.06047216875525191,0.08058275396777316
1760555328513743400,1.287743408203125,0.05331365703642368,-0.08362009410336613,0.07657360965795815
1760555328523749400,1.297749267578125,0.04446574919223785,-0.09776464705094695,0.08028713202206418
1760555328533755600,1.307755615234375,0.05160393050909042,-0.05227711706291884,0.11031765649076551
1760555328543762400,1.317762451171875,0.03937631709873676,0.008173004257306457,0.13637918599694968
1760555328553768400,1.3277685546875,0.011525018098950386,0.04137929095160216,0.12655470647187902
1760555328563774500,1.3377744140625,0.015386369702219961,0.06801693984530865,0.04336007123896852
1760555328573780500,1.347780517578125,-0.058229486128687856,0.13111658929362893,-0.014036124137043951
1760555328583786500,1.357786376953125,-0.10084171640872955,0.25273880779938773,-0.039053642749320716
1760555328593792500,1.36779248046875,-0.1277571958631277,0.33032121090739963,-0.02175893694143742
1760555328603798300,1.37779833984375,-0.06733224551677704,0.2450225708662532,0.05614849686985835
1760555328613804300,1.38780419921875,-0.005934650745987892,0.1168163525939919,0.12351139325322583
1760555328623810600,1.397810546875,0.038489012870192525,0.03962508596172556,0.2547016140386462
1760555328633817300,1.4078173828125,0.09348843103647231,-0.19586504712859168,0.28178335343804206
1760555328643823400,1.4178232421875,0.22840660457015036,-0.42447734860498454,0.08116446284586563
1760555328653829400,1.427829345703125,0.2805103012949228,-0.32568609845265745,-0.07874446915732697
1760555328663835600,1.437835693359375,-0.1664133819937706,-0.0914758125724271,0.006074296678695828
1760555328673841400,1.44784130859375,0.016128127980232238,0.03623297757171094,-0.004407696907036006
1760555328683847400,1.457847412109375,-0.01806464900076389,0.06319417759766802,-0.020606533769611267
1760555328693853400,1.467853515625,-0.021176059019565582,0.02500299689657986,0.026795835130102932
1760555328703859500,1.477859375,0.1616682332932949,-0.04361733393566683,0.044106030768062916
1760555328713865500,1.487865478515625,-0.08580255270898342,-0.007818729193229228,0.04949738668389618
1760555328723871500,1.49787158203125,0.095963881239295,0.01287738255597651,0.02466600176086649
1760555328733877500,1.50787744140625,-0.03903086466193199,-0.031949418500997126,0.07292632093047723
1760555328743884500,1.517884521484375,0.04197919307351112,-0.052274578045960515,0.0853933143209666
1760555328753890600,1.527890625,0.09596680384874344,0.020775296198949217,0.0933442185265012
1760555328763896600,1.537896484375,-0.047263270956277845,0.06060790569782257,0.09249673485169187
1760555328773902300,1.54790234375,0.04659574695825577,0.04172505391566082,0.018858995982538908
1760555328783908400,1.557908447265625,-0.03531155187785625,0.06090590226370841,-0.020088172451313585
1760555328793914600,1.56791455078125,-0.011734861457347869,0.07256252911938355,0.002850914185401052
1760555328803920400,1.57792041015625,-0.004825228199362755,0.09160031573493033,0.05051308479877188
1760555328813926400,1.587926513671875,0.0172843122780323,0.07215986660262569,0.08718202436864375
1760555328823932400,1.597932373046875,0.054500820994377135,0.020519348676502704,0.06917447584997863
1760555328833938400,1.6079384765625,0.014254735323786735,-0.0177963351870887,0.06541709607783705
1760555328843945500,1.617945556640625,0.029115619847178458,-0.06189305013753473,0.048637006994895635
1760555328853951500,1.627951416015625,0.03439151442348957,-0.027279088602401316,0.054347347465716296
1760555328863957500,1.63795751953125,0.006242693781852722,0.05319578454410657,0.08539459296260028
1760555328873963300,1.64796337890625,0.021754151168465612,0.04504554010787978,0.09229889245834201
1760555328883969500,1.657969482421875,0.04658464104235172,-0.036544564271532,0.039929932393506166
1760555328893975600,1.6679755859375,-0.0009399111986160278,-0.05617498301798477,0.026592859903909263
1760555328903981600,1.677981689453125,0.004989478850364684,-0.020477884154953063,0.023526896462030707
1760555328913987300,1.6879873046875,0.03065700407028198,-0.040529962379578496,0.04015435226652771
1760555328923993300,1.697993408203125,0.05658288796544075,-0.05677223652508109,0.08097394524244592
1760555328933999600,1.70799951171875,0.06244914965033531,-0.0918069990218617,0.08576254949215799
1760555328944005400,1.71800537109375,0.07058277174532412,-0.08869533327473327,0.05448279214734211
1760555328954012400,1.728012451171875,0.009928104296326637,-0.028840711895935237,0.02794098657723516
1760555328964018400,1.738018310546875,0.05284487048089504,-0.04378711927831173,0.040530674765631554
1760555328974024400,1.7480244140625,0.029745734444260596,-0.025493483827263116,0.034561884288024154
1760555328984030500,1.758030517578125,0.015902502530813215,0.017445603786967693,0.06457204182213172
1760555328994036500,1.768036376953125,0.026427403676509857,0.003940700449794531,0.11074278656765818
1760555329004042500,1.77804248046875,0.021366028633713723,0.005061831700522453,0.13541315397638826
1760555329014048300,1.78804833984375,0.055334349209070204,0.013334186412766576,0.0956891194185242
1760555329024054500,1.798054443359375,0.028088614886999128,0.02795395565666258,0.09928652285598218
1760555329034060500,1.808060546875,0.0048895256072282785,0.07104539342154749,0.060677153275441376
1760555329044066300,1.81806640625,0.012677110743522643,0.07883962749433704,0.04759233851386234
1760555329054072300,1.828072265625,-0.02427227146923542,0.06774383112550712,0.05467581223510205
1760555329064079600,1.83807958984375,0.02793956180512905,0.057069182778196406,0.06517285725949332
1760555329074085400,1.84808544921875,0.011426233899593352,0.044699210888240484,0.1074268669527024
1760555329084091400,1.85809130859375,0.01103109710216522,0.07326700586061924,0.07763617912186309
1760555329094097400,1.868097412109375,-0.015996610555052755,0.13590628952188416,0.059297973876725876
1760555329104103700,1.878103759765625,-0.05032265852689743,0.1487945313985925,0.06268392652058974
1760555329114109400,1.888109375,-0.0033791210442781446,0.06900679113287478,0.059137175558134907
1760555329124115500,1.898115478515625,0.02514671621620655,-0.03969437007196247,0.055313014160096645
1760555329134121500,1.90812158203125,0.0768447547495365,-0.11397700098222122,0.08566950091384351
1760555329144127500,1.91812744140625,0.06271159997880459,-0.11295094587011262,0.07880299441153184
1760555329154133500,1.928133544921875,0.034545828202366825,-0.0630155148288235,0.04749101529754698
1760555329164139500,1.938139404296875,0.017754267877340316,-0.03137399323321879,0.051517859660834074
1760555329174145500,1.9481455078125,0.013514146089553833,-0.0043364217691123485,0.06070736575061455
1760555329184152300,1.95815234375,0.04863280574381351,-0.03756835436131805,0.028432770415861158
1760555329194158600,1.96815869140625,0.05910100826621055,-0.0735715234988369,-0.008290054765716195
1760555329204164600,1.97816455078125,0.028926234754920004,-0.05791311365589499,-0.012938026702031492
1760555329214170400,1.98817041015625,0.03290682882368565,-0.07239537412524223,-0.011247972989547998
1760555329224176400,1.99817626953125,0.05858779804706573,-0.11121973816333337,0.01733001458328217
1760555329234182400,2.008182373046875,0.05327507859170436,-0.07591869854633695,0.054856411232706154
1760555329244188700,2.018188720703125,0.03285246828794479,-0.018171315112477167,0.05669995674015954
1760555329254194400,2.0281943359375,0.05300269139111042,-0.05435127472216263,0.059832391280680894
1760555329264200400,2.038200439453125,0.044911739394068714,-0.07513681832049042,0.055105234894622115
1760555329274206500,2.04820654296875,0.0450561163008213,-0.09825320688602514,0.061024706337787206
1760555329284212200,2.058212158203125,0.03677051851451397,-0.047020484309503806,0.10067772148605436
1760555329294218000,2.068218017578125,0.012853051832318305,0.0406719190003816,0.14895831625871359
1760555329304225300,2.078225341796875,-0.015122750329971313,0.10845823756074532,0.1324199269771576
1760555329314231000,2.08823095703125,-0.008203764721751213,0.025915344234835356,0.09656212112708017
1760555329324237000,2.098237060546875,0.009185761496424675,-0.016272294824430718,0.09685454646870494
1760555329334243000,2.1082431640625,0.019180501288175583,0.049523041714960706,0.14104894963996484
1760555329344249300,2.118249267578125,0.035850481060147286,0.06913546814699657,0.11869920719852671
1760555329354255000,2.128255126953125,-0.009442951127886772,0.09530129827787168,0.10731960718594491
1760555329364261000,2.13826123046875,-0.02791910353899002,0.11244221089668571,0.05357517578313127
1760555329374267100,2.14826708984375,-0.020793197181820867,0.07760154619989916,0.022053718636929988
1760555329384273200,2.158273193359375,0.00803308432996273,0.05730464463504031,-0.02075284690512344
1760555329394279200,2.168279052734375,0.012928455156087875,0.08167805665750057,0.0120486583805643
1760555329404285200,2.17828515625,0.01634673916697502,0.01639972972953692,0.021741456083673984
1760555329414291200,2.188291259765625,0.03950432739257812,-0.0341027606099844,0.043887072521448134
1760555329424298000,2.198298095703125,0.0325602073431015,-0.008842035225825384,0.04346672821752727
1760555329434304300,2.20830419921875,0.03550502862334251,0.004568221230991184,0.015448548218235372
1760555329444310300,2.218310302734375,-0.009694295540452003,0.012556343041220679,0.045683911076653747
1760555329454316000,2.22831591796875,0.02187280911207199,-0.03828690529367886,0.056274844929575914
1760555329464322000,2.238322021484375,0.0641705666154623,-0.04597812651656568,0.07443148306272923
1760555329474328300,2.248328369140625,0.023251696249842642,0.008268482254724948,0.08342192291645333
1760555329484334300,2.258334228515625,0.002412321838736534,0.02551468187891878,0.04279388872357085
1760555329494340000,2.268340087890625,0.00016600421667099,0.015923335256287828,-0.008193298126664013
1760555329504346000,2.27834619140625,-0.00791501090824604,0.017085629634466023,0.003168583566136658
1760555329514352000,2.28835205078125,0.017359131079912184,-0.0009699592770077288,0.04141209724266082
1760555329524358400,2.2983583984375,0.054601358759403223,-0.04075752405775711,0.04848716846173629
1760555329534364200,2.3083642578125,0.024825813698768615,-0.00017015980198048055,0.051526645755488425
1760555329544370200,2.3183701171875,0.028132454028725624,-0.02199656335590407,0.05349681331729516
1760555329554377000,2.328376953125,0.019454057532548905,0.012444681093981488,0.04497393617639318
1760555329564383200,2.33838330078125,0.004326631027460098,0.03977102463790215,0.08363189413901417
1760555329574389200,2.34838916015625,0.03782090435028076,0.007033716295380145,0.07509632191332057
1760555329584395300,2.358395263671875,0.00517009611427784,0.060567336225416504,0.07983938825456426
1760555329594401000,2.368401123046875,-0.00487725064754486,0.058092205683002246,0.08256059337938204
1760555329604407000,2.378406982421875,0.04072831622958183,-0.03090554460440762,0.0999623762909323
1760555329614413300,2.388413330078125,0.05698620806932449,-0.07535703694242983,0.10909859955720602
1760555329624419300,2.39841943359375,0.03509352521300316,-0.05083280000612139,0.07795240546418354
1760555329634425000,2.408425048828125,0.019056582647562027,-0.01831697979401797,0.08621955427834764
1760555329644431000,2.41843115234375,0.03670329849720001,-0.040760300536733116,0.05126225919825956
1760555329654437000,2.42843701171875,0.06827975549995899,-0.0907575447678566,0.02673899037633091
1760555329664443100,2.438443115234375,0.04585691128969192,-0.07677031954014674,0.03033403745992109
1760555329674449200,2.44844921875,0.030772739404439923,-0.04466245907442644,0.048747719094064085
1760555329684456200,2.458456298828125,0.04277706545293331,-0.05105637049577199,0.050442759508918966
1760555329694462000,2.4684619140625,0.047452071526646614,-0.07127321082805282,0.07372664099531248
1760555329704468200,2.47846826171875,0.05467150138616562,-0.0771643238264136,0.06882215528097003
1760555329714474200,2.48847412109375,0.044700142470002174,-0.04052049129833467,0.03460928536001592
1760555329724480300,2.498480224609375,-0.0052127662122249604,-0.0020374423780478534,0.05824557874696329
1760555329734486000,2.508486083984375,0.023857260927557945,0.009800185334030539,0.06904460239261388
1760555329744492000,2.518491943359375,0.029690789386630057,0.039357100941613314,0.07838496992886065
1760555329754498300,2.528498291015625,0.0008083937734365463,0.0452413914735429,0.07702643145937473
1760555329764504300,2.53850439453125,0.014584405669569969,0.026882974557438863,0.05800356841832399
1760555329774510000,2.548510009765625,0.015498597905039786,0.0580112311349716,0.0608943944890052
1760555329784516000,2.55851611328125,0.02552490187883377,0.032694345983630045,0.05292242922913283
1760555329794522000,2.568522216796875,0.004852116206288337,0.04624214774761349,0.07302353422725573
1760555329804528000,2.578528076171875,0.0030219781696796417,0.10380215538321062,0.051465015228744596
1760555329814535200,2.58853515625,-0.013442834419012069,0.10231695832675322,0.033489651946630325
1760555329824541200,2.598541259765625,-0.0005652326673269272,0.05022849570373073,0.04051892952891067
1760555329834547000,2.608546875,0.041913726621866224,-0.02293657501921989,0.04949585231393575
1760555329844553200,2.61855322265625,0.04919453127980232,0.010857503234082832,0.054739908713568
1760555329854559200,2.628559326171875,-0.003215454915165901,0.04213062990871258,0.08390870178639888
1760555329864565200,2.638565185546875,-0.0041261400192975995,0.02415184169365093,0.05096073723472654
1760555329874571000,2.648571044921875,0.012909165933728216,0.019620143947610632,0.051460284254699944
1760555329884577300,2.658577392578125,0.03442892382442951,-0.014001436416152865,0.06870450198436155
1760555329894583300,2.668583251953125,0.04876023151576519,-0.039297141782147806,0.0832543112645857
1760555329904589000,2.678589111328125,0.02823006918430328,-0.02909530771151185,0.06690388230318203
1760555329914595000,2.688594970703125,0.02387128945291042,-0.027268567208386957,0.038648514280840755
1760555329924601000,2.69860107421875,0.04706219542622566,-0.04106200516335666,0.04149055104004219
1760555329934607400,2.708607421875,0.059034957292675966,-0.053309510584268714,0.053200077126733955
1760555329944613000,2.718613037109375,0.035846973928809166,-0.04024296213174239,0.046447095735184844
1760555329954620200,2.7286201171875,0.01744505579769611,-0.0035427506407722828,0.06304453999390826
1760555329964626200,2.738626220703125,0.039305005428195,-0.04994753247103654,0.05493725791657343
1760555329974632200,2.748632080078125,0.04890227033495903,-0.05948227180191315,0.059772532585915174
1760555329984638200,2.75863818359375,0.018570844957232473,-0.05003846215750091,0.022340408357512203
1760555329994644200,2.768644287109375,0.030597382837533948,-0.030097105165198444,0.028470143284182993
1760555330004650200,2.778650146484375,0.0016086042404174804,0.024745606335718182,0.06910254312492907
1760555330014656000,2.788656005859375,0.02347615265548229,0.017887073077308014,0.08281581024946645
1760555330024662300,2.798662353515625,0.05327566311359405,-0.009808377773640676,0.0516263798029162
1760555330034668300,2.808668212890625,0.03132160545885563,-0.012018071446055545,0.0315938282626681
1760555330044674000,2.818674072265625,0.012211246797442435,0.0256825675254222,0.045094219821505244
1760555330054680000,2.82868017578125,0.016881576696038247,0.025883186397748066,0.05189310444770381
1760555330064686000,2.83868603515625,-0.0012152210086584091,0.056084509989246724,0.07808677243357524
1760555330074692400,2.8486923828125,0.013304887253046035,0.06551440070616081,0.08728510115062818
1760555330084698000,2.858697998046875,0.026615619724988937,0.029208641026029363,0.0581673258789815
1760555330094705200,2.868705078125,0.016130466067790984,0.026213514330657196,0.04570990403443575
1760555330104711200,2.878711181640625,0.008339958322048186,0.043211082089180126,0.059109922225028276
1760555330114717200,2.88871728515625,0.015962123763561247,0.01584487232575193,0.08467427933141589
1760555330124723200,2.89872314453125,0.046916064953804015,-0.03862116048303432,0.0687735851651989
1760555330134729200,2.908729248046875,0.05497077659368515,-0.048303975648246705,0.048752924992144106
1760555330144735000,2.91873486328125,0.020544190856814384,0.00432695068786852,0.06025176747022196
1760555330154741000,2.928740966796875,0.00004208557605743408,0.01993868097802624,0.06878916632682085
1760555330164747300,2.938747314453125,0.009454057043790817,0.006616997853806242,0.06558151112562045
1760555330174753300,2.948753173828125,0.021698621588945387,0.010690485237259417,0.060408875994384284
1760555330184759000,2.958759033203125,0.011950550034642219,0.009800523260748014,0.05122969036921859
1760555330194765000,2.96876513671875,0.009541735327243804,0.020563014288293196,0.03583910114960745
1760555330204771000,2.97877099609375,0.013121347379684447,0.021087659216905013,0.05858087511593476
1760555330214777300,2.98877734375,0.03809855224788189,-0.032098398517630994,0.051313477928843346
1760555330224783000,2.998783203125,0.04542027343809604,-0.049138672906719146,0.05168185458350926
1760555330234789000,3.0087890625,0.028957214415073394,-0.031186964494828134,0.0686103208948858
1760555330244796200,3.018796142578125,0.04033259491026401,-0.01171643075151369,0.06652997095687314
1760555330254802200,3.02880224609375,0.0014157120168209075,0.025823866559099403,0.07630653795329853
1760555330264808200,3.03880810546875,0.019953823748230935,0.029112240580003706,0.06089348117355257
1760555330274814200,3.048814208984375,0.0013823942691087723,0.039526119099278,0.06705463415179401
1760555330284820500,3.058820556640625,-0.009265840995311737,0.048203821475710715,0.06894817454712465
1760555330294826500,3.068826416015625,0.03529284717738628,0.0094563037998043,0.040200109370704736
1760555330304832500,3.07883251953125,0.03137479695081711,0.01984004290914163,0.023426102968677878
1760555330314838500,3.088838623046875,0.004425999748706817,0.027439448529575017,0.004880976974591613
1760555330324844500,3.098844482421875,0.01114449434876442,0.011860533663630485,0.030292974797170608
1760555330334850600,3.1088505859375,0.004081131833791733,0.036169867473933845,0.04178111321814358
1760555330344856600,3.118856689453125,0.019760347002744674,0.05326800953010097,0.04249835810940712
1760555330354862300,3.1288623046875,0.019879589468240737,-0.0020306107784621415,0.01678021694710478
1760555330364868600,3.13886865234375,0.02077741509079933,0.02598324010558426,-0.003054346069321036
1760555330374874600,3.14887451171875,0.00970657050013542,0.003213098561298102,0.02315008077258244
1760555330384880600,3.158880615234375,0.03677928634285926,-0.01344007620634511,0.048045781369786704
1760555330394887400,3.168887451171875,0.04754910216033458,-0.019654438942857084,0.09942046970026568
1760555330404893700,3.178893798828125,0.06774725605845451,-0.11776835608920082,0.07567591189956292
1760555330414899700,3.188899658203125,0.07536065367162227,-0.08068944747895002,0.11465563089614733
1760555330424905500,3.198905517578125,0.01757598870098591,0.00024736235719174146,0.11511922981990501
1760555330434911500,3.208911376953125,0.02384381692409515,-0.01179082942828536,0.07826992871444671
1760555330444917500,3.21891748046875,0.028787118545174597,-0.03801684704748914,0.04636820354638621
1760555330454923500,3.228923583984375,0.03793430159687996,-0.0775443726525642,0.03318003800818697
1760555330464929500,3.238929443359375,0.0615869798630476,-0.046564767298102376,0.03369184172153473
1760555330474935600,3.248935546875,0.002503507253527641,0.017013002789672462,0.026447880208957938
1760555330484941600,3.258941650390625,0.010779168167710304,-0.005282744442205876,0.033750019915867596
1760555330494947300,3.268947265625,0.016059154397249222,-0.014327581364288926,0.033755426743347194
1760555330504953600,3.27895361328125,0.02716097864806652,0.023644020035676658,0.03276504573281854
1760555330514959600,3.288959716796875,0.015685644909739494,0.012701130939926952,0.032286011777911336
1760555330524965600,3.298965576171875,0.01815232728421688,0.019900760120432823,0.030030414870847014
1760555330534971400,3.308971435546875,0.014646364989876747,-0.02758588952925056,0.018457100650761275
1760555330544977400,3.318977294921875,0.030867431950569152,-0.03564124048994854,0.03807866023732349
1760555330554984400,3.328984375,0.02477496029436588,0.026718623441737144,0.05937365119513124
1760555330564990500,3.338990478515625,0.010628361520171164,0.03497839266704395,0.03402695542741567
1760555330574996500,3.34899658203125,0.01943944448530674,-0.005836706796847283,-0.019755707360245286
1760555330585002500,3.35900244140625,0.04639116429686546,-0.1516654197929427,-0.03604839651873335
1760555330595008500,3.369008544921875,0.08903905041217804,-0.1810070852146484,0.04210908479718491
1760555330605014500,3.3790146484375,0.06058218673467636,-0.09573014554865658,0.11597829433465376
1760555330615020500,3.3890205078125,0.04346212510764599,-0.018168913092836737,0.15622456266833468
1760555330625026600,3.399026611328125,-0.010941665253043175,0.04645538863949478,0.18317915029041468
1760555330635032600,3.409032470703125,-0.002233458140492439,0.04760549938953482,0.1478865771076642
1760555330645038600,3.41903857421875,0.023220132067799566,0.030600999566726385,0.10518677814202383
1760555330655044600,3.429044677734375,0.008113163828849792,0.03883004486020654,0.09433394194990397
1760555330665050600,3.439050537109375,-0.009087561818957328,0.05735241103321313,0.08055617648810148
1760555330675056400,3.449056396484375,0.015447744500637054,0.05837739756624214,0.04503056173445657
1760555330685062700,3.459062744140625,0.010184709405899047,0.07590625918987207,0.0591651412772946
1760555330695068700,3.469068603515625,0.014793079984188079,0.06200322338058613,0.07092075326172635
1760555330705074400,3.479074462890625,0.010572247418761253,0.030404326217155903,0.06831199553543701
1760555330715080400,3.48908056640625,0.019826397976279258,-0.009978838969720526,0.07480387830538675
1760555330725087700,3.499087646484375,0.0295277077794075,-0.03295659538269974,0.03842139099407941
1760555330735093500,3.509093505859375,0.0356318698734045,0.022171755526028573,0.04460391555391252
1760555330745099500,3.519099609375,-0.011682254487276077,0.043933067087642844,0.04841445028539747
1760555330755105500,3.52910546875,-0.0018429975181818007,0.014930013370001688,0.06013077143905684
1760555330765111600,3.539111572265625,0.003032499563694,0.022634605531115085,0.05767934143263846
1760555330775117600,3.54911767578125,0.019441782572865485,0.053574225935060525,0.02962108515128493
1760555330785123600,3.55912353515625,0.017339841857552527,0.011355269288923591,-0.010617876658774911
1760555330795129600,3.569129638671875,-0.009732289463281632,-0.006314041985012591,-0.00901703559970483
1760555330805135600,3.579135498046875,0.022432781082391738,-0.018137111448775976,0.04240375689482316
1760555330815141400,3.589141357421875,0.06371054788827896,-0.035438155665900556,0.05374291529916227
1760555330825147600,3.599147705078125,0.050104047340154646,-0.04208753055250272,0.018640640524122863
1760555330835153700,3.609153564453125,-0.002366144609451294,-0.031673871228937056,0.03614811229985207
1760555330845159400,3.619159423828125,0.044504327636957164,-0.04630388787221163,0.060628765822760756
1760555330855165400,3.62916552734375,0.08162439024150371,-0.04872265771804377,0.08002824362386017
1760555330865171500,3.63917138671875,0.06832184107601642,-0.04540018049813807,0.06586034633331
1760555330875177700,3.649177734375,-0.022296002960205077,-0.02137594723952934,0.048600620507262646
1760555330885183500,3.65918359375,0.008905190989375113,-0.000948587695416063,0.029233346209023146
1760555330895189500,3.669189453125,0.03244739461839199,-0.05578574623838067,0.03983072806904092
1760555330905196500,3.679196533203125,0.07212824762165546,-0.05850721622467972,0.08379077449515461
1760555330915202600,3.68920263671875,0.03834229787588119,0.014389632016140966,0.09629693085225298
1760555330925208600,3.69920849609375,-0.013833879563212394,0.032900746142771095,0.09156601160652934
1760555330935214600,3.709214599609375,-0.010244330638647079,0.055601320449030024,0.09083276542853563
1760555330945220400,3.719220458984375,0.03026654344797134,0.07830801396882162,0.11553506234548985
1760555330955226400,3.729226318359375,0.026197686573863028,0.06285392192578874,0.03707306339135393
1760555330965232600,3.739232666015625,-0.03783259478807449,0.08523346585044637,0.008747863269504158
1760555330975238700,3.74923876953125,-0.0013087445110082625,0.04257276591933332,0.0019550247916020453
1760555330985244400,3.759244384765625,0.03234101163446903,0.007187281155586242,0.04369591559721157
1760555330995250400,3.76925048828125,0.07346446466147899,0.010522106400411575,0.03911191227519884
1760555331005256700,3.779256591796875,-0.008083937734365464,0.018862777108512817,0.041492889127600935
1760555331015262700,3.7892626953125,-0.006120528706908226,0.035432657506875694,0.024875169265829025
1760555331025268500,3.7992685546875,0.03503974919915199,-0.01484283741004765,0.026165263875294477
1760555331035274500,3.8092744140625,0.03864215760529041,-0.05094645298104733,0.02725300431307405
1760555331045280500,3.819280517578125,0.053043023401498794,-0.045113198516611004,-0.01688343985956162
1760555331055286500,3.82928662109375,0.006287117445468902,-0.027635738286655394,-0.04461008956637233
1760555331065292500,3.83929248046875,-0.004093406793475151,-0.014635679199080914,-0.025515202468726784
1760555331075298600,3.849298583984375,0.031465397843718525,-0.019278262574225664,-0.011688501564972103
1760555331085304600,3.8593046875,0.08648235166668891,-0.06226086053662002,0.0014160225440748035
1760555331095311600,3.8693115234375,0.05173310984671116,-0.054525608375761654,0.008717175870295614
1760555331105317600,3.879317626953125,0.02149462344944477,-0.037434590180125085,-0.002798270682711154
1760555331115323600,3.88932373046875,0.04136544508934021,-0.01972096484042704,0.024515414309035984
1760555331125329400,3.899329345703125,0.0305342544734478,0.027756862181983886,0.07293748164530843
1760555331135335400,3.90933544921875,0.03047054158747196,0.05767833678564056,0.03474379845988005
1760555331145341700,3.919341796875,-0.0026519758135080335,0.05238136288868263,-0.0018419746048748491
1760555331155347700,3.92934765625,-0.021859949630498886,0.09002733079716563,-0.02389803132936358
1760555331165353500,3.939353515625,-0.013242927932739257,0.08863390367738902,-0.01906032724091783
1760555331175359500,3.949359375,0.012268529942631721,0.03200231773201376,0.008632885987171903
1760555331185365500,3.959365478515625,0.03328559900820255,0.0060847632737830275,0.02240660546151921
1760555331195371500,3.96937158203125,0.004757423660159111,0.05847732340991497,0.019100366990361363
1760555331205377500,3.97937744140625,-0.0037362639188766476,0.08744710504561662,0.04113451327714138
1760555331215383600,3.989383544921875,-0.0005851064115762711,0.05614356496641412,0.06856860977816395
1760555331225389600,3.9993896484375,0.017044658303260803,0.05208406044254079,0.11671470971726812
1760555331235395300,4.009395263671875,0.011902034717798233,0.10336836707582697,0.13465211560917087
1760555331245401600,4.019401611328125,-0.012259762114286423,0.09355504826558754,0.11849245084635912
1760555331255407600,4.02940771484375,0.0019055413603782652,0.01375560842892155,0.02584719263575971
1760555331265413600,4.03941357421875,0.04932137252986431,-0.10596077645551413,-0.05576726073361933
1760555331275419400,4.04941943359375,0.07116612459123134,-0.12794751253714784,-0.08987221330069005
1760555331285425700,4.05942578125,0.058304889452457424,-0.0648122437861748,-0.07638555343968327
1760555331295432400,4.069432373046875,0.010136778610944747,-0.02979530920702964,-0.11281462440565228
1760555331305438500,4.0794384765625,-0.00585281768143177,-0.00964579848991707,-0.08502707482445984
1760555331315444500,4.089444580078125,0.017370821517705918,-0.08306825064057484,-0.025857152340770698
1760555331325450800,4.09945068359375,0.05721007995307445,-0.10162190700098872,-0.026081028791097922
1760555331335456500,4.10945654296875,0.06635200230777263,-0.04206246917648241,0.06518774886794854
1760555331345462500,4.119462646484375,0.00947568435370922,0.034514008291997016,0.17934022971466182
1760555331355468500,4.129468505859375,0.008394318857789039,0.07739603195674717,0.21091719817407428
1760555331365474600,4.139474609375,0.04560907400846481,0.06617396059343592,0.2275239034514874
1760555331375480600,4.14948046875,0.08043430367410183,-0.0033532742169685658,0.29837544566821306
1760555331385486600,4.159486572265625,0.06739303579330444,-0.05000919039724394,0.34836087159737944
1760555331395492600,4.16949267578125,0.10119593667387962,0.031456958808936175,0.35958719901069996
1760555331405498600,4.17949853515625,0.04849135144650936,0.11955372340232133,0.2965251598927192
1760555331415504600,4.189504638671875,-0.0030471126109361648,0.07683847113922238,0.22644673920664934
1760555331425510700,4.1995107421875,-0.017782909449934957,0.01593835929548368,0.12319115745606832
1760555331435516700,4.2095166015625,-0.000042670097947120666,0.02197763945972547,0.08057667128685861
1760555331445522400,4.2195224609375,0.052879941794276235,0.01784099631272256,-0.07780477715441957
1760555331455528400,4.229528564453125,-0.02037526403069496,0.04082810507593676,-0.2780002729690634
1760555331465534700,4.23953466796875,-0.1258306117147207,0.09754305845582857,-0.38701680199969557
1760555331475540700,4.249540771484375,-0.10952478908002376,0.09346684025917201,-0.295427829642687
1760555331485546500,4.25954638671875,-0.0538747980505228,0.12167272485028952,-0.08245752573055215
1760555331495552500,4.269552490234375,0.032788170880079265,0.015906849912367762,0.03726893758990336
1760555331505558500,4.27955859375,0.10989011526107788,-0.11631474148109555,0.09944584160353988
1760555331515565600,4.289565673828125,0.04770575402677059,-0.1377522461821325,0.10778444821871816
1760555331525571600,4.299571533203125,0.08295300849676132,-0.12891743528153746,0.05471091094794683
1760555331535577600,4.30957763671875,0.04320844260752201,0.006559559444990009,0.04203748999885283
1760555331545583400,4.319583251953125,-0.03712181617021561,0.09991968792667612,0.06352370181297883
1760555331555589600,4.329589599609375,-0.012294833427667616,0.07203205723818391,0.09969017175342887
1760555331565595600,4.339595703125,-0.010796703824400901,-0.01881106518758461,0.2316965129610151
1760555331575601700,4.3496015625,0.0968617068618536,-0.03377075217664242,0.3269561549210921
1760555331585607400,4.359607421875,0.14666004925370216,0.03856324715018272,0.3533263485176489
1760555331595613400,4.369613525390625,0.04786708206832409,0.04437677400084212,0.3538620262969285
1760555331605619700,4.37961962890625,0.05781272202134132,-0.010781761983595787,0.3239027952324599
1760555331615625700,4.389625732421875,0.021986790880560873,-0.1198802154103294,0.35437158325426277
1760555331625631500,4.399631591796875,0.1529717166185379,-0.22599053813805803,0.40103261400107293
1760555331635637500,4.409637451171875,0.2626514039993286,-0.19589244659217073,0.43613289774842556
1760555331645643500,4.4196435546875,0.15715163265168666,-0.11172328550498932,0.34429084567949175
1760555331655649500,4.4296494140625,0.07849310647845267,-0.028238398621231314,0.1757827016298659
1760555331665655600,4.439655517578125,-0.13934768041372297,0.006842486305907368,-0.042910103548341426
1760555331675661600,4.44966162109375,0.008085691300034522,-0.06186464602695778,-0.15471328132255002
1760555331685667600,4.45966748046875,0.057791094711422915,-0.0408026783737354,-0.15459882463002578
1760555331695673300,4.46967333984375,-0.023627543824911116,0.12472431270694359,-0.2630571717886254
1760555331705679600,4.4796796875,-0.12271861717402935,0.20275590262087062,-0.3465378939539194
1760555331715685600,4.489685546875,-0.13755319821238518,0.1411995553581044,-0.32840997045859693
1760555331725691600,4.499691650390625,-0.05019114110171795,0.043715898939315226,-0.2085505055753514
1760555331735697400,4.509697509765625,0.052629766425490374,-0.0129255873455666,-0.06440555811484809
1760555331745703400,4.519703369140625,0.11116671106815337,-0.07475198372136801,-0.03336820839089341
1760555331755710700,4.529710693359375,-0.027805706292390823,-0.06987904392275959,0.018510109479632227
1760555331765716500,4.539716552734375,0.029986557462811467,-0.03713491311380639,0.06748210688282269
1760555331775722500,4.549722412109375,-0.006236848562955856,0.07868713121321051,0.15512754294555633
1760555331785728800,4.559728759765625,0.029533552998304364,0.0591982398292981,0.1592038342074491
1760555331795734500,4.569734619140625,0.08834639197289944,-0.052313558349478984,0.15150579965128563
1760555331805740500,4.579740478515625,0.009807108265161514,-0.09136226919535546,0.21483685583584008
1760555331815746600,4.58974658203125,0.10173428133428096,-0.1263030149994418,0.22805008275005964
1760555331825752600,4.599752685546875,0.12857844911813734,-0.14686762758977712,0.21924267131304367
1760555331835758600,4.609758544921875,0.11068448050916194,-0.08185390641475096,0.17389844051953404
1760555331845764600,4.6197646484375,0.050419104638695714,-0.033767774768266826,0.1360250753296539
1760555331855770600,4.6297705078125,-0.06251636966764927,0.011410524873808026,0.0920726094217971
1760555331865776600,4.639776611328125,0.03223930482566356,0.0008273907348513603,0.04251348261330277
1760555331875782400,4.649782470703125,0.035246085426211354,-0.0037266923729330297,0.08166366280596703
1760555331885788700,4.65978857421875,0.026546061620116232,0.06036426966767758,0.08389305669269524
1760555331895794700,4.669794677734375,-0.0037169746965169904,0.10120894228592514,0.02405154139064252
1760555331905800700,4.67980078125,-0.06957388696372509,0.059171150892972944,-0.036769605199061334
1760555331915806500,4.689806396484375,-0.02801613417267799,0.04776760374922305,0.0018960794122889638
1760555331925812500,4.6998125,0.012476035213470458,0.05014317377414554,0.04607081890185363
1760555331935818800,4.70981884765625,0.04755027120411396,0.06343386810505762,0.0282848681114614
1760555331945824500,4.719824462890625,-0.03961772463917732,0.10051465814514085,-0.024094823409942907
1760555331955830500,4.72983056640625,-0.04102291526198387,0.124124538449198,-0.09899835356436669
1760555331965836500,4.73983642578125,-0.026102994027733802,0.03437030723867938,-0.11494914308316073
1760555331975842600,4.749842529296875,0.05513444272279739,-0.02838688544752076,-0.09880913286888972
1760555331985848600,4.7598486328125,0.03898527195453644,-0.02961595231844112,-0.09330869055539369
1760555331995854600,4.7698544921875,-0.00421498734652996,-0.03291758767971769,-0.08900291051971726
1760555332005861600,4.779861572265625,0.012290741774439812,-0.012558836392406373,-0.010791041268594563
1760555332015867400,4.789867431640625,0.04959375973045826,-0.03331840529926121,0.07304609311893583
1760555332025873700,4.799873779296875,0.07148118188977241,-0.06779412740748375,0.14538796522496267
1760555332035879700,4.809879638671875,0.0794680889904499,-0.0869831407956779,0.18209718200629577
1760555332045885400,4.819885498046875,0.0992839655727148,-0.1568160622880794,0.2306234586357139
1760555332055891500,4.829891357421875,0.09232055630087851,-0.13618596497979013,0.2271652992721647
1760555332065897500,4.8398974609375,0.11530395700335502,-0.13642021212708205,0.160295154841803
1760555332075903700,4.84990380859375,0.08398527415394783,-0.12453611492477357,0.07401533087673597
1760555332085909500,4.859909423828125,0.025019290444254872,-0.09341357570197432,0.03551412524525076
1760555332095915500,4.86991552734375,0.03145136931836605,-0.05944720962168649,0.03315994506822899
1760555332105921500,4.879921630859375,0.033093291306495666,-0.05380452755959704,0.08226659713517874
1760555332115927800,4.889927734375,0.08561492118239403,-0.1237289267277345,0.14561647675121203
1760555332125933600,4.89993359375,0.08556465229988097,-0.12022742141280322,0.1618192774028517
1760555332135939600,4.909939697265625,0.05956394960284233,0.030354532258678225,0.18198433274896814
1760555332145945600,4.919945556640625,-0.057901569348573684,0.14067580547863617,0.142362863516435
1760555332155951600,4.92995166015625,-0.05505436322391033,0.1573956705406308,0.062426389829255635
1760555332165957600,4.93995751953125,-0.020641221490502355,0.08506771736210211,-0.018541271802876142
1760555332175963600,4.949963623046875,0,0.04749461376043036,-0.02904313913285732
1760555332185969700,4.9599697265625,0.04264028733074665,0.052906930265901604,-0.04577113270238042
1760555332195975400,4.969975341796875,-0.021245617124438284,0.07002303723702206,-0.04642654613750055
1760555332205981400,4.9799814453125,-0.00955634837448597,0.07772834178418853,-0.03238189163412899
1760555332215987700,4.98998779296875,-0.0005740004956722259,0.055487420878931874,-0.015528883445449173
1760555332225993700,4.99999365234375,0.00030804303586483,0.08085694953296334,0.028430669790320096
1760555332235999500,5.00999951171875,0.005695581293106078,0.09631095024445094,-0.02603157275933772
1760555332246005500,5.020005615234375,-0.001744213318824768,0.0502136177950073,-0.050234267857391386
1760555332256011500,5.030011474609375,0.006263736569881439,-0.01614164504893124,-0.02840422017481178
1760555332266017800,5.040017822265625,0.044354105511307716,-0.11072020940966903,0.031081129500176757
1760555332276023600,5.0500234375,0.0843652133822441,-0.16010365085769443,0.0945357298660092
1760555332286029300,5.060029296875,0.12687865946292876,-0.08044466980448924,0.05114093437353149
1760555332296036600,5.07003662109375,-0.000436053329706192,0.07173836238807998,0.019207937284372745
1760555332306042400,5.08004248046875,-0.08517945237457751,0.1134865962499287,-0.03205454110959544
1760555332316048400,5.09004833984375,-0.05153904857933521,0.04971650932729244,-0.03895599106112495
1760555332326054400,5.100054443359375,0.02425648937821388,-0.018816526813991367,0.018828418181184678
1760555332336060400,5.110060302734375,0.07965279790759086,0.0058619965017307546,0.019631496458686885
1760555332346066400,5.12006640625,0.000834112736582756,0.1131830375929363,-0.008649316532164811
1760555332356072400,5.130072509765625,-0.08047638925015926,0.13577292719949036,-0.017328407148085534
1760555332366078500,5.140078369140625,-0.07608136916160584,0.10024971446548588,0.02343488906333223
1760555332376084200,5.150084228515625,0.024034955582022666,0.10735840482637285,0.06290882131764665
1760555332386090500,5.160090576171875,0.06700023708343505,0.010737639714078977,-0.03852115244097076
1760555332396096500,5.170096435546875,-0.026471827340126035,0.03738656805362552,-0.032331631884770465
1760555332406102500,5.1801025390625,-0.023562077373266217,0.035087469931552186,0.005044122513895854
1760555332416108300,5.1901083984375,-0.00575695609152317,0.044416448424104596,0.08676141520324163
1760555332426114300,5.2001142578125,0.07216331893503665,0.08238267039605415,0.16279460697472095
1760555332436120600,5.21012060546875,0.06985971816778183,0.05928323296532034,0.15091541427639313
1760555332446126300,5.220126220703125,-0.06442600268125534,0.06720686557143926,0.11713720031250267
1760555332456132400,5.23013232421875,0.027666005560755727,0.08420194911193102,0.13390516056623308
1760555332466138400,5.240138427734375,-0.045316813063621515,0.055888275031093504,0.14611356695261782
1760555332476144400,5.250144287109375,0.09523907409608363,-0.037659010053146626,0.17736969682667403
1760555332486150400,5.260150390625,0.14229133265018462,-0.21197693636007606,0.12105610905559733
1760555332496156400,5.270156494140625,0.10691372979879378,-0.17409272098261863,0.05696587766734883
1760555332506162400,5.280162353515625,0.04538169499337673,-0.09879037336949259,0.016203531304001807
1760555332516168400,5.29016845703125,-0.005035656079649925,-0.10284291842961683,-0.026952395664993672
1760555332526174200,5.30017431640625,0.05707973157167434,-0.06758552615810186,-0.0382309464558959
1760555332536180500,5.310180419921875,0.02523556354343891,-0.024170564660429952,-0.040771872243518005
1760555332546186500,5.3201865234375,0.005087678527832031,-0.019737678513210264,-0.06157760924650356
1760555332556192500,5.330192626953125,0.023712299498915672,-0.03487484096102416,-0.06428169883973896
1760555332566198300,5.3401982421875,-0.018270985227823257,0.02258240041984245,-0.07169559182543307
1760555332576204300,5.350204345703125,0.006606266397237777,0.05094732976388186,0.024259284123498946
1760555332586210600,5.36021044921875,0.0018248773396015165,0.10602317416723817,0.14581634670486673
1760555332596217300,5.37021728515625,-0.0016308160722255706,0.08175565193835646,0.16936799401566385
1760555332606223400,5.380223388671875,0.039919337934255596,0.10484258608054368,0.15537956321155652
1760555332616229400,5.3902294921875,-0.02391103694140911,0.15333850410431624,0.1533362390819937
1760555332626235400,5.4002353515625,-0.010540683236718177,0.1123827723270282,0.11973220350807531
1760555332636241400,5.410241455078125,-0.015907763227820396,0.12075241340128705,0.08276631768508813
1760555332646247400,5.420247314453125,-0.032817981496453284,0.1428123243169859,0.11302348138336092
1760555332656253400,5.43025341796875,0.005794950014352798,0.043789658295270054,0.10959719672910868
1760555332666259500,5.440259521484375,0.07854863605797291,-0.10583965256018564,0.045742144069913775
1760555332676265500,5.450265380859375,0.10939093356728553,-0.060850317885261025,0.0718684733074624
1760555332686271500,5.460271484375,0.00959375777542591,0.025577399251051246,0.10176452120891771
1760555332696277500,5.470277587890625,0.018445757272839546,0.01763007524209097,0.05422468006727285
1760555332706283300,5.480283203125,0.03178220870792865,-0.020674155645724383,0.04784408478522673
1760555332716289500,5.49028955078125,-0.01669043803811073,-0.0323620361561887,0.10080269957259297
1760555332726295600,5.500295654296875,0.04374678726792335,0.06256588963149115,0.15739442843161522
1760555332736301300,5.51030126953125,0.02965630259513855,0.032981775489728894,0.11700106151113286
1760555332746307300,5.520307373046875,0.03756546828448772,0.010769030366186053,0.09664135124259628
1760555332756313300,5.530313232421875,0.0004611877709627151,-0.077291311206948,0.0947877227325458
1760555332766319600,5.540319580078125,0.05823942300081253,-0.09311214506998658,0.11963126388425006
1760555332776325400,5.550325439453125,0.09717033441960811,-0.14381837782068177,0.16625917781274765
1760555332786331400,5.560331298828125,0.14225041611790656,-0.1485906337237917,0.19288427775213493
1760555332796337400,5.57033740234375,0.10398410608768463,-0.12134637897275388,0.1130399393278174
1760555332806343400,5.580343505859375,0.007210662031173706,-0.023299079055525362,0.05139755774941295
1760555332816349400,5.590349365234375,-0.05844459018409252,0.06518838362218812,-0.021343104415852576
1760555332826355500,5.60035546875,-0.0910842925041914,0.20862267576241864,-0.02787793127838522
1760555332836361500,5.610361572265625,-0.031104747837781905,0.1597159301817417,-0.07546071651261299
1760555332846367200,5.6203671875,-0.025872692403197287,0.09455542094716801,-0.11001986085427924
1760555332856373200,5.630373291015625,-0.026740707409381864,0.04858050930099562,-0.09656970164533704
1760555332866379500,5.640379638671875,0.010969137781858443,0.10419316399479284,-0.06700911450963468
1760555332876385500,5.650385498046875,-0.014167057040333747,0.04191115107228979,0.022845417003892362
1760555332886391300,5.660391357421875,0.07080255197584628,0.054518466248922044,0.05193027638662606
1760555332896397300,5.670397216796875,-0.013618190985918044,0.055887800107058135,0.055508189672324806
1760555332906403300,5.6804033203125,0.019471008667349816,-0.004270626523904502,0.03401511885914951
1760555332916409600,5.69040966796875,0.050205169627070424,-0.10555983097180724,0.005855174035299569
1760555332926415400,5.700415283203125,0.06709200702011585,-0.18389383789841085,0.005428381724283099
1760555332936421400,5.71042138671875,0.1440226864874363,-0.1940177204951644,0.06956042469395324
1760555332946427400,5.720427490234375,0.09169277979135512,-0.16354385443944483,0.08282954651387407
1760555332956433400,5.730433349609375,0.09582651859521865,-0.1353436689367518,0.08387556670177727
1760555332966440400,5.7404404296875,0.05497253015935421,-0.16948150086011737,0.06629723991323262
1760555332976446500,5.750446533203125,0.08363631458580494,-0.22900552031137048,0.07912400652682408
1760555332986452200,5.7604521484375,0.15889584597051143,-0.30984628589451313,0.06941716203205286
1760555332996458200,5.770458251953125,0.17040274389088153,-0.2805835309279151,0.11232497772518545
1760555333006464500,5.780464599609375,0.07752981440424919,-0.06013732904400676,0.1910506873831153
1760555333016470500,5.790470458984375,-0.055335518252849575,0.21090601919293403,0.1140100264689885
1760555333026476300,5.800476318359375,-0.07261047818064689,0.11051960880365222,-0.008369312280695885
1760555333036482300,5.810482421875,-0.028700024783611295,-0.03340312444064766,-0.023121475732605902
1760555333046488600,5.820488525390625,0.03657645724713802,-0.02703576309951022,0.03710807990580797
1760555333056494600,5.83049462890625,0.10437456670999526,0.007551858417969196,0.019812862641271203
1760555333066500400,5.840500244140625,-0.01488017374575138,0.03609775208579376,0.047115003325697034
1760555333076506400,5.85050634765625,-0.04476034822463989,0.037508459133934226,0.03945508142337203
1760555333086512400,5.860512451171875,-0.001647182685136795,-0.023248992836102843,0.039529260904435065
1760555333096518400,5.870518310546875,0.04443009335696697,0.008039678467530757,0.06275469020185992
1760555333106524400,5.8805244140625,0.08180617654919624,0.06435629844591022,0.030426538048963992
1760555333116530400,5.890530517578125,-0.05932429562807083,0.06839019360449165,0.02030722202947363
1760555333126536400,5.900536376953125,0.004720014259219169,0.052279436884168536,0.02264799473565072
1760555333136542200,5.910542236328125,-0.026278935116529463,-0.003360215414408594,0.05763981313984841
1760555333146548500,5.920548583984375,0.051336219483613964,-0.048285417078249154,0.10382223005685955
1760555333156554500,5.930554443359375,0.11484978349506854,-0.047400925861299036,0.10570639983564614
1760555333166560500,5.940560546875,0.020064882907271386,-0.008716226022224874,0.057772590940352524
1760555333176566300,5.950566162109375,-0.02216740814447403,0.028090752045158294,0.04245817222949117
1760555333186572300,5.960572265625,-0.040621348723769185,-0.01112400868316181,0.06915770737826823
1760555333196578600,5.97057861328125,0.056523266732692715,0.004488835851848125,0.10698230152297765
1760555333206584600,5.98058447265625,0.05815057567358017,0.11133802164760417,0.10004967098189517
1760555333216590300,5.99059033203125,-0.044212651214003564,0.14989844665303825,0.08922693766709416
1760555333226596400,6.000596435546875,-0.07039280213117599,0.12856569010126404,0.04512887100977823
1760555333236602400,6.010602294921875,-0.01730360150039196,0.1060546561508905,0.03047256914777681
1760555333246608400,6.0206083984375,0.01483048938512802,0.09478919317042454,0.02805312344850972
1760555333256614400,6.030614501953125,0.048920975035429,-0.024111756278434766,0.023075663829501717
1760555333266620400,6.040620361328125,-0.007679448586702347,0.013609295293409377,0.04376256935894489
1760555333276626400,6.05062646484375,0.007710428246855736,0.057358018790092315,0.05247209164574742
1760555333286632000,6.0606318359375,0.029840426990389822,-0.028374628754146397,0.06308629677640273
1760555333296638000,6.070637939453125,0.006167874979972839,-0.046542783795157444,0.09081614308729767
1760555333306644000,6.08064404296875,0.047405309775471687,-0.02780315814227797,0.08280313343098386
1760555333316650200,6.090650146484375,0.041781040152907366,0.05747455784184858,0.0738095152394846
1760555333326656000,6.100656005859375,-0.045510874330997465,0.09167425775397568,0.019275120769068597
1760555333336662000,6.110662109375,-0.030566987699270246,0.05374920804263092,-0.019514117156714198
1760555333346668000,6.12066796875,0.0003653261810541153,0.05803982704179361,0.00705548973577097
1760555333356674300,6.13067431640625,0.004046645042300224,0.033730557163571935,0.06062591627854853
1760555333366680000,6.14068017578125,0.06487666905820369,-0.017483268916234373,0.040499274980369954
1760555333376686000,6.15068603515625,0.02440904959142208,-0.0005662921132519841,0.046448374376818535
1760555333386692000,6.160692138671875,-0.016624387064576147,0.01678615349754691,0.022628468051273373
1760555333396699100,6.17069921875,-0.007246902388334274,0.01012242129202932,0.04453538036234676
1760555333406704000,6.1807041015625,0.0038753801286220547,0.06992454529860988,0.07869356095399707
1760555333416711200,6.190711181640625,0.043565585482120514,0.0892925867818296,0.07604200526559725
1760555333426717000,6.200717041015625,0.031494623938202855,0.01637353584235534,0.08218637150581926
1760555333436723000,6.210722900390625,0.01914659901857376,-0.019464816388580948,0.0437376175807789
1760555333446729200,6.220729248046875,0.047504678496718404,-0.0350421420856379,0.05188587098931893
1760555333456735200,6.2307353515625,0.05445698185265064,-0.050975131086260075,0.05268454708633944
1760555333466741000,6.240740966796875,0.05002279879748821,-0.003996631888113915,0.0598935286170803
1760555333476747000,6.2507470703125,0.013739187017083166,0.019655498388782142,0.06756532362028957
1760555333486753000,6.2607529296875,0.03374854034483433,-0.044088805638626216,0.027535949440300463
1760555333496759300,6.27075927734375,0.03938683849275112,-0.027171956699807195,0.026492559600900856
1760555333506765000,6.28076513671875,0.027674773389101025,-0.01597638975093141,0.028384017636999485
1760555333516771000,6.29077099609375,0.06939560778737068,-0.035847448852844535,0.011470255704410374
1760555333526777000,6.300777099609375,0.01702595360279083,-0.051514644790440794,0.010344028153456747
1760555333536783000,6.310783203125,0.03726093237996101,-0.03496820006659254,-0.01289015070600435
1760555333546789000,6.3207890625,0.017257424271106717,-0.04079383748015389,0.017691285643726587
1760555333556795100,6.330795166015625,0.009826982009410857,-0.0637973128562793,0.02871511275488883
1760555333566801200,6.34080126953125,0.05760229414105415,-0.03481890952270478,0.021131251763459293
1760555333576807000,6.350806884765625,0.02279343108832836,-0.027751802414376286,0.007182130056433379
1760555333586813000,6.36081298828125,0.00388473247885704,-0.009840626942273228,-0.021181264917645604
1760555333596819200,6.370819091796875,0.013397826233506202,0.007892232820857315,0.010759513619169592
1760555333606825200,6.3808251953125,-0.010941665253043175,0.05192631259756163,0.06422395903682336
1760555333616831000,6.3908310546875,0.013773673808574676,0.053448517196159805,0.08083121230350807
1760555333626837000,6.4008369140625,0.025468787777423858,0.024744619955029336,0.06675232673697173
1760555333636843000,6.410843017578125,-0.00037818566262722014,0.03367008654745295,0.05975532572278752
1760555333646849300,6.420849365234375,0.012382511711120604,0.030649752345588057,0.05396702464492991
1760555333656855000,6.43085498046875,0.023170447707176207,0.02643478326536715,0.08611965583413839
1760555333666861000,6.440861083984375,0.03960837228894234,0.04067516127023846,0.11061052022380753
1760555333676867000,6.4508671875,0.014283961418271063,0.05287433403739705,0.09712996587660164
1760555333686872800,6.460872802734375,0.011411620852351189,0.027591570351365953,0.07569317356161773
1760555333696879000,6.470879150390625,0.008526420804858208,0.04290783395944163,0.07797534794835373
1760555333706885000,6.480885009765625,0.0008458031743764876,0.027602931995596734,0.09917186523405834
1760555333716891100,6.49089111328125,0.08592997848093509,-0.021414178624376654,0.0671534366174601
1760555333726897000,6.50089697265625,0.04082067068815231,-0.002149853243958205,0.09163007155237719
1760555333736903200,6.510903076171875,0.0027571897536516187,-0.005065064837224781,0.07695621576737612
1760555333746909200,6.5209091796875,0.01930909610390663,0.020623868496902287,0.030852526642382142
1760555333756915200,6.530915283203125,-0.02340074933171272,0.07152874735854566,0.04695533751826733
1760555333766921000,6.5409208984375,0.033708792856335636,0.03327018224336207,0.02862032887721434
1760555333776927000,6.550927001953125,0.043241760355234145,-0.03503532875236123,0.022105978547129777
1760555333786933200,6.560933349609375,0.054880760222673415,-0.06550937747117132,0.04535301688816398
1760555333796939000,6.57093896484375,0.05186053561866283,-0.04868747680680826,0.03819638659916818
1760555333806945000,6.580945068359375,0.03836860136091709,-0.05040622689081355,0.048071189805679024
1760555333816951000,6.590950927734375,0.02697393164336681,-0.0017098909241147339,0.06935156771624461
1760555333826957000,6.60095703125,0.022609891214966774,0.015106201053969561,0.05213884110338986
1760555333836963000,6.610963134765625,0.010274141255021095,0.03851809283420443,0.059554962578788395
1760555333846969000,6.620968994140625,-0.005233224478363991,0.12163873124914243,0.0653435376512818
1760555333856975000,6.63097509765625,-0.0011105915904045104,0.07847279434278608,0.012544351209327578
1760555333866981000,6.640981201171875,0.008591887256503105,-0.02347863687351346,-0.02330507040489465
1760555333876987000,6.65098681640625,0.0025970307558774944,-0.060194045933615416,0.005548427907377481
1760555333886993200,6.6609931640625,0.04791267477571964,-0.053286769029498096,0.045363775744196026
1760555333896999200,6.670999267578125,0.08063654824793338,-0.024569153790269044,0.07510571079617366
1760555333907005200,6.681005126953125,0.049181087276339526,-0.01622793509289622,0.05152229837393388
1760555333917011000,6.691010986328125,0.012653145346045494,-0.008262326508574187,0.018541892857383935
1760555333927017000,6.701016845703125,-0.044807694497704505,0.038034218307398254,-0.009257274096366017
1760555333937023200,6.711023193359375,0.00410392818748951,0.0498110740092583,-0.0007871317896991968
1760555333947029000,6.721029052734375,0.029071780705451963,0.0470627982144244,0.00831453161984682
1760555333957035000,6.731034912109375,0.01994037974476814,-0.006377334745880216,-0.010124083526153117
1760555333967041000,6.741041015625,0.01801028846502304,-0.03574316649446264,-0.000771660225931555
1760555333977048000,6.751048095703125,0.007423427999019622,-0.023376729135308413,-0.0007670753823593258
1760555333987054000,6.76105419921875,0.031409283742308614,-0.0573481001842767,0.059965954532474275
1760555333997059000,6.77105908203125,0.052832010999321936,-0.08390840952545404,0.13755392886474727
1760555334007066000,6.781066162109375,0.08471475747227668,-0.0688029391238466,0.1843175066705793
1760555334017071900,6.79107177734375,0.08578034087717533,-0.074905512048956,0.1706626552023925
1760555334027078100,6.801078125,0.04106792344748974,-0.07638581373458728,0.13818731313114985
1760555334037084200,6.811084228515625,0.021786884394288063,-0.04332644296400249,0.11589355692695825
1760555334047090200,6.821090087890625,0.01732405976653099,-0.008994659371115267,0.07592126496275886
1760555334057096000,6.831095947265625,0.03709375911951065,0.00398788232607767,0.06584938654787838
1760555334067102200,6.841102294921875,0.02395195347368717,-0.01954840301880613,0.060735970790591086
1760555334077108200,6.851108154296875,0.02140928325355053,0.001701926813367754,0.06656425681896508
1760555334087114000,6.861114013671875,0.0011994389176368714,0.0800408656434156,0.0765567133220844
1760555334097120000,6.8711201171875,0.028595979887247085,0.03415354094915092,0.027145835877861825
1760555334107126000,6.8811259765625,0.024431845945119858,-0.05169902491401881,0.03644897667625919
1760555334117132300,6.89113232421875,0.04451426450908184,-0.04862520695924759,0.059547345527913416
1760555334127138000,6.901137939453125,0.07595452791154385,-0.03203649399625137,0.040897370919864624
1760555334137144000,6.91114404296875,0.04455693460702896,-0.002731178529560566,0.032103147757984694
1760555334147150000,6.921150146484375,-0.015993103423714638,0.00838379746377468,0.00752109795352444
1760555334157156000,6.931156005859375,0.00009819967746734619,-0.012389197180233895,0.0037978579130023716
1760555334167162000,6.941162109375,0.021439093869924545,-0.046398817880358545,0.04502966668531298
1760555334177168100,6.951168212890625,0.08197627241909504,-0.1177989521568641,0.11187491413643583
1760555334187174100,6.961174072265625,0.10299275696277618,-0.12323562678545713,0.11269371970603242
1760555334197180200,6.97118017578125,0.0740302818506956,-0.08411923926454037,0.10374178523179144
1760555334207186000,6.98118603515625,0.027860066828131674,-0.027222846636828033,0.11452924630381166
1760555334217192200,6.991192138671875,-0.026532033094763756,-0.0016239114074036477,0.08217908324850723
1760555334227198200,7.0011982421875,0.008844400712847708,-0.00811226877970621,0.0846605613333173
1760555334237204000,7.011203857421875,0.05496551589667797,-0.02946783081833273,0.1046620236155577
1760555334247210000,7.0212099609375,0.07336918759346008,-0.0343201662203297,0.06228464327100664
1760555334257216000,7.031216064453125,0.024869652840495107,0.043540177046228194,0.03781526006078347
1760555334267222300,7.04122216796875,-0.06714286042451859,0.12411650127321482,-0.016358721865713594
1760555334277228000,7.05122802734375,-0.057387190085649485,0.13557429935485124,-0.09814975564470514
1760555334287234300,7.061234375,-0.048859600237011906,0.16161306903995573,-0.04770000013941899
1760555334297240300,7.071240234375,-0.032440964877605435,0.17374827319281175,0.027279088602401316
1760555334307246300,7.081246337890625,-0.0326385332763195,0.16906037110490724,0.019585374028328804
1760555334317252400,7.09125244140625,-0.04389876295924187,0.15249343158230186,0.023450945148989558
1760555334327258400,7.10125830078125,0.016539046868681906,0.04017840899555012,0.006198050922527909
1760555334337264400,7.111264404296875,0.07924772423803805,-0.1359631708082743,0.011559358759969472
1760555334347270100,7.121270263671875,0.1244242520481348,-0.13213846142096444,0.024818872501328585
1760555334357276200,7.131276123046875,0.05991875438988208,-0.0223234937553294,-0.013818590662535279
1760555334367282400,7.141282470703125,-0.02532791800200939,0.04601392848230898,-0.06627100949343294
1760555334377288400,7.151288330078125,-0.053062897145748134,0.04725766319939866,-0.05573966034064069
1760555334387294200,7.161294189453125,0.012259177592396735,-0.00509469279050827,-0.032194406238012015
1760555334397300200,7.17130029296875,0.06829495306909084,-0.0555223643281497,0.0328245025687851
1760555334407306200,7.18130615234375,0.08496434831917285,-0.09987013143021613,0.06729500051261857
1760555334417312300,7.191312255859375,0.03968260656893253,-0.05422598610837012,0.09323467547111212
1760555334427318300,7.201318359375,0.024928105029463767,-0.004324092010501772,0.10229019818399102
1760555334437324300,7.21132421875,-0.0280026901692152,0.04370643699122592,0.07711918777674436
1760555334447330300,7.221330322265625,0.009751578685641289,0.04131274678772315,0.04614561030426994
1760555334457336000,7.231336181640625,0.006196516552567481,0.020919800969865173,0.04548818757515401
1760555334467342300,7.24134228515625,0.014904723665118217,0.004127400394622237,0.08150509297708049
1760555334477348400,7.251348388671875,0.05008475811779499,0.00729156351396814,0.08737376581477001
1760555334487354400,7.261354248046875,0.02481120065152645,-0.0008284501807764172,0.07357327706450596
1760555334497360100,7.271360107421875,0.042188451910018916,-0.0037112208091653882,0.07013532023876905
1760555334507366100,7.2813662109375,-0.012418752068281172,0.046322318578045814,0.045718891058489676
1760555334517372400,7.291372314453125,-0.007770049479603767,0.05142550520226359,0.07342334719980136
1760555334527378400,7.30137841796875,0.0010386953979730606,0.009304529037885367,0.125346207464952
1760555334537384200,7.31138427734375,0.04797463409602642,-0.0025101927226409315,0.15811870585186405
1760555334547390200,7.32139013671875,0.07753682866692542,-0.008708408041950316,0.16446865940047428
1760555334557396200,7.331396240234375,0.013736264407634735,-0.04320738316159695,0.11851658064061775
1760555334567402200,7.34140234375,0.051425651332736015,-0.06118915791818872,0.08159136475473641
1760555334577408300,7.351408203125,0.03976560867726803,-0.12864073723200709,0.09518630272923037
1760555334587414300,7.361414306640625,0.08422668169438838,-0.18281353184841573,0.08282751895356923
1760555334597420300,7.371420166015625,0.09977321039438247,-0.1262203964835964,0.12487727477895096
1760555334607426000,7.381426025390625,0.05275602315366268,-0.0951264988333918,0.14533040808513759
1760555334617432300,7.391432373046875,0.0414922863394022,-0.04291328645269386,0.15447654995722696
1760555334627438300,7.401438232421875,-0.02440729602575302,0.027538899449212475,0.11635207781679928
1760555334637444400,7.4114443359375,0.018913374784588814,0.0482239874809049,0.09842373201418668
1760555334647450000,7.4214501953125,0.02464695000052452,0.029709393622400236,0.054429892916325474
1760555334657456400,7.431456298828125,0.00987958897948265,0.07263441617866047,0.03879170387750491
1760555334667462400,7.44146240234375,-0.023277999734878537,0.08859116964736022,0.026917251286376266
1760555334677468400,7.451468505859375,-0.024740473502874373,0.10823727002013474,-0.00038061508173123
1760555334687474200,7.46147412109375,-0.022797522741556168,0.1619724221379496,0.010524006096553056
1760555334697480200,7.471480224609375,-0.036862872973084444,0.19738184489971025,0.0007902187959291041
1760555334707486500,7.481486572265625,-0.06738719057440758,0.18264621245749293,0.042899541055131704
1760555334717492200,7.4914921875,-0.01907996352314949,0.13803017720752395,0.07605784215554595
1760555334727498200,7.501498291015625,0.017819734328985214,0.02047463275194168,0.1124259538816288
1760555334737504300,7.511504150390625,0.08925532351136208,-0.049191444273572416,0.09794623242923989
1760555334747510300,7.52151025390625,0.08046294524669646,-0.031419001418724654,0.07010432231230661
1760555334757516300,7.531516357421875,0.022498247534036633,-0.008451930796541274,0.02404754106895998
1760555334767522300,7.541522216796875,-0.02059621330499649,-0.00624652970675379,-0.03041422655666247
1760555334777528300,7.5515283203125,0.022186112844943998,0.039878275271505115,0.0011698840295895933
1760555334787534300,7.561534423828125,0.02080605666339397,0.008973653115704656,0.024223153364192694
1760555334797540000,7.5715400390625,0.059814124971628184,-0.030505119710508732,0.020613675896450877
1760555334807546400,7.58154638671875,0.022231705552339553,0.006917085912078618,-0.009748948337137698
1760555334817552400,7.591552490234375,-0.02141571299433708,0.020166078259423376,-0.04221497459076345
1760555334827558400,7.601558349609375,0.007983984491229057,-0.007973773624468595,-0.009976984939351678
1760555334837564200,7.611564208984375,0.03169394590258598,-0.051942916672490534,0.03665808938229456
1760555334847570200,7.621570068359375,0.10448270325958728,-0.09402009022776037,0.001438088245410472
1760555334857576400,7.631576416015625,0.10604805288016796,-0.07746887799724936,-0.01678602563338354
1760555334867582200,7.641582275390625,-0.03044190001487732,0.028632549037970603,-0.009428301548026501
1760555334877588200,7.651588134765625,-0.026857611787319182,0.08760099869938567,-0.013988175075780599
1760555334887594200,7.66159423828125,-0.026357845571637152,0.1446161223359406,0.050195780744217336
1760555334897600300,7.671600341796875,-0.04449497528672218,0.20730930987522006,0.10796197847640142
1760555334907606300,7.681606201171875,-0.02615267838835716,0.1650590265090577,0.1279069430647418
1760555334917612300,7.6916123046875,-0.007797522008419037,0.07344007913889362,0.11468659228999167
1760555334927618300,7.701618408203125,0.06330956587195397,-0.09317448798278347,0.034570268523879344
1760555334937624300,7.711624267578125,0.15648995387256145,-0.30158209622241555,-0.043272228558734055
1760555334947630000,7.721630126953125,0.1649701974481344,-0.26746930740876124,0.015953209804743528
1760555334957636400,7.73163623046875,0.0595563508182764,-0.06264058056920767,0.08193104503788054
1760555334967642400,7.741642333984375,0.02675707402229309,0.03220834343181923,0.08482040980383754
1760555334977648400,7.7516484375,-0.014375146833062171,-0.002269351437781006,0.06185111069194972
1760555334987654100,7.761654052734375,0.02470306410193443,-0.09582717618234456,0.06757084004562348
1760555334997660400,7.771660400390625,0.10564590182006359,-0.12383912737024948,0.08759049557168036
1760555335007666400,7.78166650390625,0.0985737714767456,-0.10597405606219544,0.08503160486910492
1760555335017672200,7.791672119140625,0.05262625929415226,-0.07781926233749836,0.07943334647063166
1760555335027678200,7.80167822265625,-0.004018003469705582,-0.0670126581735909,0.05215769193433225
1760555335037684200,7.811684326171875,0.015993687945604323,-0.12249872734565287,0.0584532484145835
1760555335047690500,7.8216904296875,0.07383563606142997,-0.13250864644022659,0.09456866402123122
1760555335057696300,7.8316962890625,0.10606851114630698,-0.1552810347405262,0.07316774673722684
1760555335067702300,7.841702392578125,0.10496259573101997,-0.16806964303450658,0.03730060680322349
1760555335077708300,7.851708251953125,0.044186932250857354,-0.1452650146987289,-0.009920140185579657
1760555335087714300,7.86171435546875,-0.007910919255018235,-0.014993881519604473,0.00479461386539042
1760555335097720300,7.87172021484375,-0.0339981311917305,0.12249609699714928,0.024175131237693128
1760555335107726300,7.881726318359375,-0.0487421113371849,0.1406018543264363,0.026169519925303756
1760555335117732400,7.891732421875,-0.00035188217759132384,0.06598240181040019,0.016113916791789234
1760555335127738000,7.901738037109375,0.021107669958472252,0.05032698764214292,-0.006701105073839426
1760555335137744100,7.911744140625,-0.0038204350709915157,0.0543330358125735,-0.01427658182941377
1760555335147750400,7.92175048828125,0.0013385551273822783,0.12807450905083678,-0.04633073934651911
1760555335157756400,7.93175634765625,-0.050502691268920895,0.1581925748056732,0.01812079963479191
1760555335167762200,7.94176220703125,-0.04823065468370914,0.1591872301325202,0.04014043333902955
1760555335177768200,7.951768310546875,-0.016990882289409637,0.18992592113688586,0.02979552840273827
1760555335187774200,7.961774169921875,-0.046049218991398806,0.21069385601328686,0.05481507457531988
1760555335197780500,7.971780517578125,-0.06298164909183979,0.21345217827809973,0.043765163174830375
1760555335207786200,7.9817861328125,-0.033407764083147044,0.203969388330169,0.07005041843429208
1760555335217792300,7.991792236328125,-0.021086627170443534,0.03861422841874882,0.15360292719416319
1760555335227798300,8.00179833984375,0.10834347034096717,-0.07411821586247533,0.13667115468084812
1760555335237804300,8.01180419921875,0.10682195986211299,-0.13694824545602313,0.08684943141341209
1760555335247810300,8.021810302734375,0.05278641829192638,-0.0756302917927038,0.09192563869915903
1760555335257816300,8.03181640625,-0.054496729341149325,0.0551476857968606,0.07449172534998506
1760555335267822300,8.041822265625,-0.01528407837152481,0.05875804004743695,0.06246306857783347
1760555335277828000,8.051828125,0.02944353662729263,-0.010555168419796973,0.06176675687674433
1760555335287835000,8.0618349609375,0.05245324081480503,-0.030770657045207917,0.038463476570136844
1760555335297841000,8.0718408203125,0.06968143899142741,-0.026883001956902443,0.00861095728315413
1760555335307847000,8.081846923828126,0.006218728384375572,-0.12696633774638175,-0.025491109207086263
1760555335317853000,8.09185302734375,0.065325581869483,-0.19019118447694927,0.029404264062829314
1760555335327859000,8.10185888671875,0.08440379182696342,-0.1288772859342396,0.0861393469152972
1760555335337865000,8.111864990234375,0.10674012679755687,-0.06107342258403077,0.043666525105945764
1760555335347871000,8.12187109375,0.01604044969677925,-0.0006776435332372785,0.035779278987459834
1760555335357877000,8.131876953125,-0.0522673628538847,0.0016036175380460917,-0.03643818128760904
1760555335367883000,8.141883056640625,0.002382511222362518,0.006534972993005067,-0.02280355062354356
1760555335377889000,8.151888916015626,0.04696107313930988,0.03350521484194323,0.011669431538321078
1760555335387894800,8.161894775390625,0.05189560693204403,0.05073651829110458,0.0033666999541223045
1760555335397901000,8.171901123046876,-0.029391514179110526,0.02584059849819168,-0.02625277776196599
1760555335407907000,8.181906982421875,0.04079670529067516,-0.037007377744000404,-0.07156593756377697
1760555335417913000,8.1919130859375,0.01744388675391674,-0.013245905341114849,-0.06130381554011255
1760555335427918800,8.2019189453125,0.044995910546183585,0.017942301262728867,-0.06367938556503504
1760555335437924900,8.2119248046875,-0.02062719296514988,0.042444563829246905,-0.035910686814785
1760555335447931100,8.22193115234375,-0.012592355069518089,0.014694880306720733,-0.029151312215067445
1760555335457937000,8.23193701171875,0.04911094464957714,-0.0034539033135399222,0.012788973620161414
1760555335467943000,8.24194287109375,0.01756371374130249,0.012903832171484827,0.08116649040617048
1760555335477949000,8.251948974609375,0.039546997490525246,0.01245714784990996,0.12316942968145012
1760555335487955000,8.261954833984374,-0.0005927051961421966,0.0054449675329029555,0.13641484183222055
1760555335497961000,8.2719609375,0.050838206833601,-0.015268168416339904,0.08174666491430252
1760555335507967000,8.281967041015625,0.007236380994319915,0.010352978644892572,0.061663333034887906
1760555335517973000,8.291972900390626,0.0007645546317100524,0.018319464012049137,0.03064007120179012
1760555335527979000,8.30197900390625,0.004323708418011665,0.02185640596654266,0.00317298574661836
1760555335537984800,8.31198486328125,-0.009468670091032982,0.03899778437623754,0.006226053174305707
1760555335547991000,8.321990966796875,0.03179915984272957,0.01710904704267159,0.012937040321342646
1760555335557997000,8.3319970703125,0.0034703064590692516,0.021060506348498164,0.050350313718803226
1760555335568002800,8.3420029296875,0.032445056530833245,0.03470682745035737,0.0374508837278001
1760555335578008800,8.3520087890625,-0.005613748228549957,0.04588094975240528,0.043495114061795175
1760555335588014800,8.362014892578125,-0.0222732066065073,-0.03439332278808579,0.1365674203117378
1760555335598021000,8.372021240234375,0.06542553511261939,-0.02336421671360731,0.17101161477053536
1760555335608027000,8.38202685546875,0.05353109917938709,0.040782494102232156,0.17414034125031902
1760555335618033000,8.392032958984375,0.039841012001037596,0.050522199686989185,0.114923762046732
1760555335628039000,8.402038818359374,-0.04814414544403553,0.03437306545134634,0.060964263121131804
1760555335638045000,8.412044921875,0.005593874484300613,-0.027161289175320416,0.012423683971725403
1760555335648051000,8.422051025390624,0.02037058785557747,-0.014122834306117146,0.04675882856547832
1760555335658057000,8.432056884765625,0.079119129422307,-0.03143712159730494,0.07662756833489984
1760555335668063000,8.44206298828125,0.10342588768303394,-0.019311434191465377,0.07007365317940711
1760555335678069000,8.452069091796876,-0.03442307860553264,0.03862067642584443,0.05259356260094791
1760555335688075000,8.462074951171875,-0.005848141506314277,0.04650910985441878,0.03569085178533569
1760555335698081000,8.4720810546875,-0.022350948017835617,0.032139863039180636,0.05453375514959916
1760555335708087000,8.482087158203125,0.03815934252440929,0.028452571094874292,0.07189078560397029
1760555335718092800,8.4920927734375,0.03758475750684738,0.04546824076566845,0.09466942098196596
1760555335728098800,8.502098876953125,-0.03569616728127002,0.04628653487861156,0.11661525879763066
1760555335738105000,8.51210498046875,0.019973697492480277,0.07709332268312573,0.09675990872150286
1760555335748111000,8.522111083984376,-0.012103694769740103,0.0955973129492253,0.14204835420716552
1760555335758116900,8.532116943359375,0.02819265978336334,0.0384098466867581,0.15997165850847958
1760555335768123000,8.542122802734376,0.09798691149950027,-0.020705738094076512,0.12321820072662085
1760555335778129000,8.55212890625,0.06668810239434242,-0.1709007930735126,0.038133440898172555
1760555335788135200,8.56213525390625,0.08507073130309581,-0.09900774244721978,0.03984258290361613
1760555335798141000,8.572140869140625,-0.008445172262191773,-0.019729641337227075,0.027527985329553483
1760555335808147000,8.58214697265625,0.05414192455410957,-0.053816163198463614,0.004987012898642569
1760555335818153000,8.592153076171876,0.07129355036318302,-0.08612438680818305,-0.03372683996967971
1760555335828159000,8.602158935546875,0.042560207831859584,-0.09879850187702104,-0.04732592439632863
1760555335838165000,8.6121650390625,0.04107902936339378,-0.0631062801185064,-0.03357431628908962
1760555335848171000,8.6221708984375,0.016139818418025968,-0.027357414535619316,0.0005730871802195907
1760555335858177000,8.632177001953124,0.04793664017319679,-0.06455881701437756,-0.002444233080651611
1760555335868182800,8.642182861328125,0.04967968444824218,-0.08048258152892812,-0.014404464259091764
1760555335878188800,8.652188720703125,0.06686696609258651,-0.0809259413822554,-0.0029949074996635317
1760555335888195000,8.662195068359376,0.07961421946287155,-0.14078122034817933,0.0011716010626405477
1760555335898201000,8.672201171875,0.06153729550242424,-0.11065596680073067,-0.005326419187150895
1760555335908206800,8.682206787109376,0.027304186511039732,-0.0006491298248060048,0.006403583431988954
1760555335918212900,8.692212890625,-0.006601590222120285,0.026445962246507405,0.0064135020378045735
1760555335928219000,8.702218994140624,-0.0014198036700487136,-0.016260339525155723,-0.02817052101679146
1760555335938225200,8.71222509765625,0.046129883012175556,-0.05896048555066809,-0.01604929059036076
1760555335948231000,8.72223095703125,0.027222937968373297,-0.0608812244801782,0.028348654062673447
1760555335958237000,8.73223681640625,0.047912090253829955,-0.012570599895436315,0.10488353914543985
1760555335968243000,8.742242919921875,0.03323708369135856,0.02185182112297043,0.13058617221135646
1760555335978249000,8.7522490234375,0.0008767828345298766,0.06514996957425027,0.08366040784744545
1760555335988255000,8.7622548828125,-0.036110008779168125,0.10010520056141539,0.08086637494843453
1760555335998261000,8.772260986328124,-0.0339022696018219,0.11337603941438719,0.0373067442830652
1760555336008267000,8.78226708984375,-0.04986673145294189,0.13713977683959527,0.05907607475435361
1760555336018272800,8.792272705078124,-0.009179916277527808,0.16850334001034498,0.08961621097931638
1760555336028279000,8.802279052734375,0.005585691177845001,0.14268420442529023,0.08945174113260582
1760555336038285000,8.81228515625,-0.007142272970080375,0.06209443619484081,0.06650956748966128
1760555336048291000,8.822291015625,0.042108956933021545,-0.04220381387593224,0.016414488907251504
1760555336058296800,8.832296875,0.04975508777201176,-0.07475779240764677,0.009982300435286015
1760555336068302800,8.842302734375,0.09978139370083808,-0.11185832832781598,-0.012098214877024293
1760555336078309000,8.85230908203125,0.06139467216134071,-0.10807345776055008,-0.016338610659446567
1760555336088315100,8.862315185546874,-0.021537878069281577,-0.03429331474602222,-0.022641966853663324
1760555336098321000,8.87232080078125,0.025157237610220907,-0.04195827814964577,-0.021568054011836646
1760555336108327000,8.882326904296875,0.02231295409500599,-0.11157172993877902,-0.017316862840764224
1760555336118333000,8.8923330078125,0.08500292676389216,-0.07371248460579663,0.03787031471626833
1760555336128339000,8.9023388671875,0.06913958719968795,-0.08992233605273067,0.0497948535268195
1760555336138345000,8.912344970703124,0.036214638197422024,-0.08754778894111513,0.0832570877435617
1760555336148351000,8.92235107421875,0.02599894913136959,0.015657651791116223,0.13301789287030696
1760555336158357000,8.93235693359375,-0.006722001731395721,0.0897713102094829,0.16970128109063953
1760555336168362800,8.94236279296875,0.015585691666603087,0.0789418548929505,0.15677130983090026
1760555336178369000,8.952369140625,-0.01660334427654743,0.046015353254415095,0.09120727956304327
1760555336188375000,8.962375,-0.0006347907721996307,0.10715483594513497,0.07484245675010606
1760555336198381000,8.972381103515625,-0.025210429102182387,0.1219187537669204,0.028151706718467173
1760555336208386800,8.98238671875,-0.004276946666836738,0.07979543038182892,0.016986498375236986
1760555336218392800,8.992392822265625,0.023698270973563192,0.02274311654004268,0.011312032935395837
1760555336228399000,9.002399169921874,0.010352467188239097,0.03244841753169894,0.04459730315003544
1760555336238404900,9.01240478515625,0.04322305565476417,-0.0006494951509870588,0.06797925644973292
1760555336248411000,9.022410888671875,0.05843582235574722,0.003856227903580293,0.04180584580060094
1760555336258417000,9.0324169921875,-0.011472411128878594,0.0052131498047150665,0.06564001811351627
1760555336268423000,9.0424228515625,0.003770750710368156,0.004927985320938751,0.06713067679638042
1760555336278429000,9.052428955078126,0.035898411855101585,-0.010503584363032132,0.05829736373312771
1760555336288434700,9.0624345703125,0.05933247893452644,-0.060968199510732665,0.09345805416451766
1760555336298440700,9.072440673828124,0.06826105079948902,-0.0865327392802108,0.07723002774007617
1760555336308447000,9.082447021484375,0.04356032478511333,-0.10121791104367002,0.04139467118382454
1760555336318452700,9.09245263671875,0.04402852681875229,-0.13400824648137202,0.054412594721652566
1760555336328458800,9.102458740234376,0.05929682309925556,-0.09658059749868698,0.030279969185125082
1760555336338464800,9.11246484375,0.05721709421575069,-0.026708120314031837,-0.01949831679938361
1760555336348470800,9.122470703125,0.006105915659666061,-0.02577409086693078,-0.04036859780540689
1760555336358476800,9.132476806640625,-0.0036398178070783612,-0.05834787921081297,-0.03743038892904296
1760555336368482800,9.14248291015625,0.0361287134796381,-0.10087544514839537,0.025297577662672845
1760555336378488800,9.15248876953125,0.05411328298151493,-0.04164160428275354,0.09235012945523485
1760555336388494800,9.162494873046874,0.04061725707054138,0.029047586979111653,0.12160665561044588
1760555336398500600,9.17250048828125,-0.0002653729379177093,0.07812845615083351,0.15457895088577642
1760555336408507000,9.1825068359375,-0.0582014290779829,0.10571222678823396,0.12074850441114976
1760555336418513000,9.192512939453126,-0.028047698354721068,0.10295175823210738,0.08155377269070595
1760555336428518700,9.2025185546875,0.040652328383922576,0.08875089025371707,0.08178940807748586
1760555336438524700,9.212524658203124,0.02285539040863514,0.09951239490057341,0.06085977983335033
1760555336448530700,9.22253076171875,-0.001743044275045395,0.025932952956762165,-0.0061334247210994355
1760555336458537000,9.232536865234374,0.021009470281004906,-0.06261116267847829,-0.043354116422217336
1760555336468542700,9.242542724609375,0.02684241421818733,-0.11445167842241935,-0.005013736508786678
1760555336478548700,9.252548828125,0.10369184514284133,-0.04494871040359139,0.05104216844048351
1760555336488554800,9.2625546875,0.03791267428696155,0.03864491581795737,0.03943747270144522
1760555336498560800,9.272560791015625,-0.02120703867971897,0.04794104235367849,0.02481039693392813
1760555336508566800,9.28256689453125,-0.007250409519672393,0.009135693543311209,0.004526026057079434
1760555336518572800,9.29257275390625,0.006985621103644371,-0.023758750722836702,-0.001129789481218904
1760555336528578800,9.302578857421874,0.046486441364884376,-0.034580068398686124,0.022905129568185655
1760555336538584800,9.312584716796875,0.0786357298195362,-0.10045446152365765,0.030841420726478098
1760555336548590800,9.3225908203125,0.038678982484340665,-0.031044770412007344,0.053086552015971386
1760555336558596900,9.332596923828126,-0.03415887471139431,0.0027666517017409203,0.04785617708181962
1760555336568603000,9.342602783203125,-0.015713117438554764,0.018401826799567787,-0.010486450565140694
1760555336578608600,9.352608642578126,0.01992868930697441,0.05884367250427603,0.008067607654072344
1760555336588614700,9.36261474609375,-0.01087561427950859,0.07563502276674844,0.002818820280395448
1760555336598621000,9.372620849609374,-0.0017149872243404387,0.09821535909366794,-0.0029946517713367936
1760555336608627000,9.382626953125,-0.024272855991125105,0.1210979663027916,0.008764321213960646
1760555336618632700,9.3926328125,-0.011363105535507201,0.11683643640079534,0.02324331201398745
1760555336628638700,9.402638671875,0.006917816564440727,0.05516375101567246,0.07309462670208886
1760555336638644700,9.412644775390625,0.014547580790519713,0.001815387992048636,0.09934988868208601
1760555336648651000,9.422651123046874,0.07211129648685455,-0.03960692011737264,0.08699220088496804
1760555336658656800,9.43265673828125,0.037920857593417165,0.041724560725316405,0.0833734258659184
1760555336668662800,9.442662841796874,-0.0296060337126255,0.10028420125697739,0.04644364340277388
1760555336678668800,9.452668701171875,-0.013881810358166694,0.07224833947052248,-0.0070611522915773085
1760555336688674800,9.4626748046875,-0.002647299638390541,0.025099141614278776,-0.026978699150029567
1760555336698680800,9.472680908203126,0.060658174580335615,-0.017015286078304052,-0.01696169272754341
1760555336708686800,9.482686767578125,0.061870472979545586,-0.08551854813583194,0.03222717599645257
1760555336718692900,9.49269287109375,0.06295125395357608,-0.12632924541924148,0.026681725497450678
1760555336728698600,9.50269873046875,0.06569383065998553,-0.1142974742413964,0.03781794520821422
1760555336738704600,9.51270458984375,0.022932547298073768,-0.08250875359429045,0.09514900292614474
1760555336748711000,9.5227109375,0.033711130943894385,-0.036413530903542414,0.10462600245410576
1760555336758717000,9.532717041015625,0.04836158758699894,-0.0043360290434677155,0.08838440416203812
1760555336768722700,9.54272265625,0.03131283763051033,-0.012822181770019233,0.040689189795590934
1760555336778728700,9.552728759765625,-0.0047165071278810495,-0.016811224006721748,0.03964344360232353
1760555336788734700,9.562734619140626,-0.0036462475478649136,0.039018306574458254,0.005666008138749748
1760555336798740700,9.57274072265625,0.0025029227316379545,0.0520616750807967,-0.011698639366496354
1760555336808746800,9.582746826171874,-0.004665653723478317,0.08668077858192845,0.012007193859014659
1760555336818752800,9.592752685546875,-0.023940263035893437,0.10129199006003327,0.0549836178089492
1760555336828758800,9.6027587890625,0.006580547434091567,0.07361233956641518,0.10042873342735692
1760555336838764500,9.6127646484375,0.013681319350004195,0.10653796442211605,0.12247158361040054
1760555336848769800,9.622769775390625,0.021923662516474724,0.10733167208307422,0.13908537621572614
1760555336858775800,9.63277587890625,-0.0021767595171928405,0.16700745716309173,0.10688311546482145
1760555336868781800,9.64278173828125,-0.04763035070300102,0.10713712675850838,0.10129430074812844
1760555336878787800,9.652787841796876,0.022279051825404166,-0.008021055965451523,0.04385448542609811
1760555336888793600,9.662793701171875,0.07538929524421692,-0.01704366278941743,0.04844431570069864
1760555336898799900,9.6727998046875,0.060844637063145635,0.009025310237705707,0.043734183514676984
1760555336908806000,9.682805908203125,-0.0003787701845169067,0.028482911434210834,0.045248789328709245
1760555336918812000,9.69281201171875,-0.02550210552513599,0.05229752053013071,0.04933826886573806
1760555336928817700,9.702817626953125,0.014639350727200507,-0.015315934814512728,0.03513281604377553
1760555336938823700,9.71282373046875,0.048909284597635265,-0.051691316531598565,0.06190828423928469
1760555336948830000,9.722829833984376,0.08255553361177444,-0.044194549301732326,0.09057024203483015
1760555336958836000,9.7328359375,0.06613046851158141,-0.11597177326232194,0.0671287588339299
1760555336968841700,9.742841796875,0.10591010571420192,-0.3000045995063148,0.008664148775115609
1760555336978847700,9.75284765625,0.12429624175429344,-0.2555531345677562,-0.00463461926439777
1760555336988853800,9.762853759765624,0.05051087457537651,-0.09201518014613538,0.06982300288658588
1760555336998859800,9.77285986328125,0.0636778146624565,-0.033575759327504784,0.043927075738273556
1760555337008865800,9.78286572265625,0.03036240503787994,-0.08989219664279371,0.0351359943815507
1760555337018871800,9.792871826171876,0.03734977970719337,-0.13903037635916843,0.01765038737775758
1760555337028877800,9.8028779296875,0.07573825481235981,-0.15390863214246928,0.055897517783474175
1760555337038883600,9.812883544921876,0.09627543140649795,-0.08303001925572752,0.05837532434016466
1760555337048889900,9.822889892578125,0.045132688668370245,0.013066858979780226,0.051526243896689264
1760555337058896000,9.832895751953124,-0.046804421272873875,0.066830049881991,0.053469432120025154
1760555337068902000,9.84290185546875,-0.0058615855097770685,0.05042569877626374,0.02521408236399293
1760555337078907600,9.85290771484375,0.007914426386356354,0.056583545552566644,0.046600678861699996
1760555337088913700,9.86291357421875,0.024616554862260817,0.11451340028070844,0.07775982376784085
1760555337098920000,9.872919921875,0.0019610709398984907,0.14142727229990995,0.07736808450389653
1760555337108925700,9.88292578125,-0.04504617942869663,0.07771144544831476,0.03309402195885777
1760555337118931700,9.892931640625,0.010435469296574592,0.09441080657839775,0.03393339539244771
1760555337128937700,9.902937744140624,-0.02105973916351795,0.04287796854414046,0.05908508004471659
1760555337138943700,9.91294384765625,0.05484393534362316,0.06048832530560903,0.03604151012022048
1760555337148949800,9.92294970703125,0.005378185907006263,0.09084841965539381,0.01459839766230434
1760555337158955800,9.932955810546876,-0.014508417823910713,-0.01257957778633572,0.02619911134596914
1760555337168961800,9.9429619140625,0.06421732836663722,-0.09764633616721256,0.022980514625646174
1760555337178967800,9.9529677734375,0.07494739669561386,-0.10052269532112404,0.05458345777653158
1760555337188973800,9.962973876953125,0.10523732101917266,-0.05243899309374392,0.07510594825819135
1760555337198979800,9.972979736328124,0.034001638323068614,-0.09348272281489334,0.015407266359776257
1760555337208985900,9.98298583984375,0.01599427246749401,-0.11380247553237713,-0.03745846424605697
1760555337218991900,9.992991943359375,-0.014410802668333052,-0.07751955787171609,0.021049144704267383
1760555337228997600,10.00299755859375,0.03966390186846256,-0.13250226236521265,0.04620199840031564
1760555337239004000,10.01300390625,0.13345569976568222,-0.03739003865234554,0.05642510358784347
1760555337249010000,10.023010009765626,-0.00045709611773490905,-0.0018001995560713111,0.10083587118983268
1760555337259015700,10.033015625,-0.02027647983133793,-0.02619028871869668,0.05839136215951293
1760555337269021700,10.043021728515624,-0.004049567651748657,-0.008483887704228981,0.034728418227657674
1760555337279027700,10.05302783203125,0.01821720921397209,0.026407429467560722,0.0995039649989456
1760555337289033700,10.06303369140625,0.05071370367109775,0.09489075384875759,0.14567377816271035
1760555337299039500,10.07303955078125,-0.03351414706707,0.1723734411756508,0.11230634608995169
1760555337309045800,10.083045654296875,-0.06994213575422763,0.15857041340842842,0.06562639144696295
1760555337319051800,10.0930517578125,-0.002377250525355339,0.07957270014239474,0.04093914596866816
1760555337329057800,10.103057861328125,0.006761164698004722,0.06709513055896386,0.0459168613160029
1760555337339063600,10.1130634765625,0.03636310675740242,0.14529846944375893,0.0712434276111424
1760555337349069600,10.123069580078125,-0.024239538243412972,0.09508225783286615,0.07229958560056984
1760555337359075800,10.133075927734374,-0.012677110743522643,0.016973803290445358,0.03935099999438971
1760555337369081900,10.143081787109375,0.0693383246421814,-0.0024063578888308254,-0.0024778978882357477
1760555337379087600,10.153087646484375,0.036411622074246405,0.06509281429322436,0.033874979736097155
1760555337389093600,10.16309375,0.01115618478655815,0.07434317459161392,0.019388225754722953
1760555337399099600,10.173099609375,-0.018377368211746216,0.01712442727489397,0.0025145766368135807
1760555337409105700,10.183105712890624,0.007163315758109092,-0.038718949168547984,0.011516104140132665
1760555337419110700,10.193110595703125,0.067556117400527,-0.05173912859554402,-0.016603417341783642
1760555337429116700,10.20311669921875,0.06363689813017845,-0.08026018008305691,-0.0053747518409043545
1760555337439122700,10.213122802734375,0.03717500766217709,-0.13902449460765345,0.024812588891014457
1760555337449128700,10.223128662109374,0.07119008998870849,-0.1185907601216808,0.00988094068635255
1760555337459134700,10.233134765625,0.04101180934607982,-0.10502134018093347,0.01101772616393864
1760555337469140700,10.243140625,0.0654518385976553,-0.07561606233795173,0.008355448152124882
1760555337479146800,10.253146728515626,0.016891513568162916,-0.026869265692494808,0.006877521086670458
1760555337489152800,10.26315283203125,0.0027870003700256347,-0.003054647463420406,0.020933774696290493
1760555337499158500,10.273158447265626,-0.005336100330948829,0.017661210165871306,0.006229505506716668
1760555337509164800,10.283164794921875,-0.010350713622570036,0.06687769754915497,0.011089987682551145
1760555337519170800,10.2931708984375,0.0036287118911743164,0.09317299014544114,0.0371008829800412
1760555337529176800,10.3031767578125,-0.01680208171904087,0.09599931787885725,0.04015683648455888
1760555337539182600,10.3131826171875,0.004541735082864761,0.03195495319264009,0.008270619412884116
1760555337549188600,10.323188720703126,0.022895137897133825,0.01630276302793063,0.00415153018888086
1760555337559195000,10.33319482421875,0.02448445291519165,-0.010000740274274722,0.008083535875566303
1760555337569200600,10.34320068359375,0.058388476082682605,0.015171767970314248,-0.00011420096419751644
1760555337579206700,10.35320654296875,0.0017816227197647093,0.026643886838247997,0.028562333345972
1760555337589212700,10.363212646484374,0.01896831984221935,0.019045211870176715,0.028380839299224317
1760555337599218700,10.37321875,0.013687749090790747,0.0042697314747609195,0.03915664646606892
1760555337609224700,10.383224609375,0.03906184432208538,0.007198377938335761,0.048554297147504984
1760555337619230700,10.393230712890626,0.05127484468519687,-0.024118487413320688,0.04699946892093867
1760555337629236700,10.40323681640625,0.0331266090542078,-0.09071629030886105,0.06787362238448112
1760555337639242800,10.41324267578125,0.05400280834436416,-0.05825230074869468,0.06057181147113442
1760555337649248500,10.42324853515625,0.03775017720162868,-0.02088356974585913,0.05007681227335706
1760555337659254800,10.4332548828125,0.0319850378036499,-0.009335280369175598,0.026287575080711393
1760555337669260800,10.4432607421875,-0.013239420801401138,-0.007476482493663206,0.01726754380632192
1760555337679266800,10.453266845703125,-0.010290507867932319,-0.000037153672613203525,0.03993130236668512
1760555337689272600,10.4632724609375,0.025392215409874914,0.01992418666179292,0.048369186371564864
1760555337699278600,10.473278564453125,0.04910626847445965,0.013840327570307998,0.02071403099838644
1760555337709284900,10.483284912109376,0.024071195939183235,0.00494468986056745,0.02410511647509411
1760555337719290600,10.49329052734375,-0.031166122636198997,0.027281892480840904,0.016835527330916374
1760555337729296600,10.503296630859374,-0.0005476970106363296,0.06574640109743922,0.021483298337832094
1760555337739302700,10.513302734375,0.014466916769742965,0.03278089175592176,0.07677749819960444
1760555337749308700,10.52330859375,0.03559212238490581,0.017812373006436972,0.08846075733387843
1760555337759314700,10.533314697265626,0.010343114838004111,0.019078374354261903,0.05433043286353349
1760555337769320700,10.54332080078125,-0.009804185655713081,0.025144295930257066,0.06820426084464415
1760555337779326700,10.55332666015625,0.005036825123429298,0.025558146561309694,0.06695723819192499
1760555337789332700,10.563332763671875,0.03768237266242504,0.014624427152704447,0.027982871223893015
1760555337799338800,10.5733388671875,0.04055003705322742,-0.0364118960688822,0.024647041332069783
1760555337809344800,10.5833447265625,0.012755436676740646,-0.004323799749556928,0.030375045323744413
1760555337819350800,10.593350830078125,0.005929974570870399,-0.002184568364312872,0.020305870322603732
1760555337829356500,10.6033564453125,0.03845043442547321,-0.02273648586985655,0.018277067908737808
1760555337839362600,10.613362548828125,0.039240123498439784,-0.004085817142063752,0.020786018522363156
1760555337849368800,10.623368896484376,0.04168284047544002,0.019044928742386398,0.01800886369291693
1760555337859374800,10.633374755859375,0.0068956047326326365,0.0039672870626207436,0.02364904327066615
1760555337869380600,10.643380615234374,-0.003206687086820602,-0.0016250621848739682,0.03852735385289416
1760555337879386600,10.65338671875,0.032892800298333164,-0.025215771997580304,0.08864877245295792
1760555337889392600,10.663392578125,0.0644797786951065,-0.005580540078692138,0.08204299924606456
1760555337899397600,10.673397705078125,0.05119125805497169,-0.049344214549334714,0.06523547416692599
1760555337909404000,10.68340380859375,0.024597850161790846,-0.04073712059054523,0.060155686684604734
1760555337919409700,10.69340966796875,-0.006357260072231292,0.03751226765937172,0.07154241055771708
1760555337929415700,10.703415771484375,0.008588380125164986,0.0342820079007186,0.12303741906592622
1760555337939421700,10.713421630859376,0.05402268208861351,0.01718622219841927,0.1188905833184719
1760555337949427700,10.723427734375,0.021938275563716886,0.04669422976351343,0.08075462166965007
1760555337959433700,10.733433837890624,-0.0032341596156358716,0.04478852400635369,0.01913377606961876
1760555337969439700,10.743439697265625,-0.013132453295588492,0.049562588274059814,0.015104502287227659
1760555337979445800,10.75344580078125,0.0030079496443271635,0.034610116477077825,0.0424164885122329
1760555337989451500,10.763451416015625,0.06310965938568115,-0.03274460573298856,0.06820858995988964
1760555337999457500,10.77345751953125,0.056012394601106644,-0.051318044506106525,0.06218355751670897
1760555338009463800,10.7834638671875,0.05478489863276481,-0.061121344245830544,0.03625436741961166
1760555338019469800,10.7934697265625,0.003599485796689987,-0.027111011159652844,0.04766644492968917
1760555338029475600,10.8034755859375,0.02455751815140247,-0.0421466494617518,0.04702548014502972
1760555338039481600,10.813481689453125,0.08724749082028865,-0.07587792814453131,0.008341090833209455
1760555338049487600,10.823487548828124,0.07483867562413216,-0.0855121914602816,-0.014468670335412024
1760555338059494000,10.833493896484375,0.032550854992866515,-0.06525142978788354,-0.03644767976831645
1760555338069499600,10.843499755859375,-0.017769465446472166,-0.06037926630740985,-0.008873170149605722
1760555338079505700,10.853505615234376,0.024685528445243833,-0.07054458602624945,-0.003301434431876987
1760555338089511700,10.86351171875,0.07129471940696239,-0.06938482153187506,0.03121777975820005
1760555338099517700,10.873517578125,0.06012567513883114,-0.058829570913687346,0.0643559148534201
1760555338109523700,10.883523681640625,0.030866262906789777,-0.02331887060138397,0.04805475012753158
1760555338119529700,10.89352978515625,-0.015440145716071128,0.04195164747945964,0.04908973746476695
1760555338129535700,10.90353564453125,-0.03601648527681827,0.08380799049143679,0.043572508413251484
1760555338139541500,10.91354150390625,0.006676409024000168,0.0737966922905296,0.059474061095993964
1760555338149547800,10.9235478515625,0.028836802905797956,0.04538735754918307,0.06816031210506335
1760555338159553800,10.9335537109375,0.013421207109093666,0.04260412003882229,0.06627241599922999
1760555338169559800,10.943559814453126,0.01913140144944191,0.03860667529995553,0.04424173117801547
1760555338179565600,10.953565673828125,-0.01839198125898838,0.05715660533332265,0.025120284867007285
1760555338189571600,10.963571533203124,-0.015666355687379837,0.019497403483930975,0.05150375807024538
1760555338199577900,10.973577880859375,0.0745709645986557,-0.03573018828188069,0.03025430502090603
1760555338209583900,10.983583984375,0.042377837002277374,0.04862393745076842,0.06315143443448469
1760555338219589600,10.993589599609376,-0.011934183421730995,0.07127611517119221,0.06902127631595358
1760555338229595600,11.003595703125,-0.015347791257500647,0.046244787229271604,0.03761644955305382
1760555338239601700,11.0136015625,-0.02594225050806999,0.035977294910745694,0.05130465530157089
1760555338249607700,11.023607666015625,0.03869651814103126,-0.043467294473107904,0.07550590736120939
1760555338259613700,11.03361376953125,0.08488543786406516,-0.06870322334272787,0.09179793893257156
1760555338269619700,11.04361962890625,0.05581190359294414,-0.01417977039143443,0.07745753461932763
1760555338279625700,11.053625732421875,0.005521393769979476,-0.005582485440606251,0.05663372310353443
1760555338289631200,11.06363134765625,-0.01587619904577732,0.030297340445034203,0.045852399511355904
1760555338299636200,11.07363623046875,0.0041501054167747495,0.08285833421694114,0.028195655458047985
1760555338309642000,11.08364208984375,0.020865677896142003,0.05034418537211604,0.04069196627456695
1760555338319648000,11.09364794921875,0.016480010157823563,0.04245126756466925,0.03340650370782241
1760555338329654000,11.103654052734376,-0.0030067806005477904,0.06259275023895315,0.01919325117189437
1760555338339660000,11.113659912109375,0.0005804302364587784,0.04853005775539204,0.0038179143203422427
1760555338349666000,11.123666015625,-0.016486439898610115,0.033514521526405584,0.005430299686733633
1760555338359672000,11.133672119140625,0.026415713238716124,0.05866735695614479,0.05236894179852679
1760555338369678000,11.143677978515624,0.048345220974087715,0.04344375833389349,0.0736299574214965
1760555338379684000,11.15368408203125,0.019405542215704917,0.043316104233078655,0.053408203452080485
1760555338389689900,11.16368994140625,-0.011611527338624,0.07039462876208126,0.02304119530431926
1760555338399696100,11.173696044921876,-0.011644260564446448,0.04201540603120811,0.015302837870921938
1760555338409702100,11.1837021484375,0.024680267748236655,-0.0037129743748344477,0.008566076961811631
1760555338419708000,11.1937080078125,0.041843583995103836,-0.01797628573072143,0.013595102371275425
1760555338429714000,11.2037138671875,0.04001870665550232,-0.03894006283963099,0.03336313949013129
1760555338439720200,11.21372021484375,0.026235680496692657,-0.07257736136233434,0.030661808109562844
1760555338449726200,11.223726318359375,0.03416121279895305,-0.05750258749308996,0.024232396116573362
1760555338459732000,11.23373193359375,0.07996025642156601,-0.0895971226863563,0.024410437830910084
1760555338469738000,11.243738037109376,0.04824877486228943,-0.09949361713486723,0.03503423277381807
1760555338479744000,11.253743896484375,0.03300269041359424,-0.07278145083338022,0.029553846867661923
1760555338489750300,11.263750244140626,0.03199088302254677,-0.008098605580534785,0.02389030468063429
1760555338499756000,11.273756103515625,0.0019844518154859543,-0.011787687623128294,0.029101299060881138
1760555338509762000,11.283761962890624,0.031090719312429425,-0.03625538119976408,0.021631492903176695
1760555338519768000,11.29376806640625,0.04908171855509281,-0.03458526516361162,0.04373116957368329
1760555338529773800,11.30377392578125,0.0553781883507967,-0.009858957183407619,0.06351900737155229
1760555338539780000,11.313780029296876,0.015601473757624626,0.03797332756617106,0.048520833269320426
1760555338549786000,11.3237861328125,-0.03879997851550579,0.06413935862644575,0.02093761062119156
1760555338559792000,11.333792236328126,-0.028864275434613226,0.05678554353122599,0.02823498282143846
1760555338569798000,11.3437978515625,0.0064507835745811455,0.05301376077439636,0.07337201887136324
1760555338579804000,11.353803955078124,0.05503858113288879,0.0751157755324617,0.0803274092335254
1760555338589810200,11.36381005859375,0.033005613023042675,0.05257114983974024,0.0629861608701758
1760555338599816200,11.373816162109375,-0.004247136050462723,0.014921930528245865,0.04176200665887445
1760555338609822000,11.383822021484375,-0.0150187054336071,0.02155326743465848,0.04824305750755593
1760555338619828000,11.393827880859375,0.020257190608978272,0.02503048769170418,0.06436605265494436
1760555338629834000,11.403833984375,0.06731997055709361,0.05432298934259452,0.03967197557706385
1760555338639840000,11.413840087890625,0.027179098826646802,0.026780774558288974,0.034208467740472405
1760555338649846000,11.423845947265624,0.007426350608468055,-0.026621063085086643,0.023244006133731454
1760555338659852000,11.43385205078125,0.006976853275299072,-0.007621827514795586,0.03368210577880963
1760555338669857000,11.44385693359375,0.05049509248435497,0.0010192691782955079,0.04396556285144761
1760555338679863000,11.453863037109375,0.0559925208568573,-0.0345569432514254,0.04938280212720856
1760555338689868800,11.463868896484374,0.03188157742917538,-0.056073732866905625,0.05609051960492506
1760555338699875000,11.473875,0.023361001843214033,-0.01994709261334501,0.04515510142957791
1760555338709881000,11.483881103515625,0.0016816694766283035,-0.020787653357023372,0.04074064598819241
1760555338719887000,11.49388720703125,0.008419453299045563,-0.023389570350572465,0.053778534601815045
1760555338729892900,11.503892822265625,0.057170332464575764,-0.020692084028059617,0.05894139725770801
1760555338739899000,11.51389892578125,0.026616204246878623,0.018978183649107812,0.04792672156738117
1760555338749905200,11.5239052734375,0.005075403568148612,0.01875611099679954,0.045052444772701705
1760555338759911200,11.5339111328125,-0.020795535269379616,0.00999488592222333,0.030579317457880822
1760555338769917000,11.5439169921875,-0.0006114098966121674,0.017672955402592196,0.04541002603871747
1760555338779923000,11.5539228515625,0.049155952835083006,0.046327040418935934,0.06678801910486072
1760555338789929200,11.56392919921875,0.020956278789043426,0.09158098084679804,0.04718215027777478
1760555338799935000,11.57393505859375,-0.03639233285188675,0.08088381014042534,0.062064077589195216
1760555338809941000,11.58394091796875,-0.015324410381913183,0.02132693873234093,0.045337709721177816
1760555338819947000,11.593947021484375,0.03292436448037624,0.027122820328455418,0.07963637649575248
1760555338829953000,11.603953125,0.05254501075148582,0.06429281388879753,0.0949404930083081
1760555338839959000,11.613958984375,0.03417933297753334,0.041052515815803776,0.04163109202189371
1760555338849965000,11.623965087890625,0.00823649794757366,-0.04424068999839947,-0.002544259389024228
1760555338859971000,11.63397119140625,-0.011870470535755157,-0.000053209758270531886,0.014711922773066908
1760555338869977000,11.64397705078125,0.04938625445961952,0.012101046154927462,0.05411474428623914
1760555338879982800,11.65398291015625,0.06452654044628144,0.0036574995942413803,0.09229330296777188
1760555338889989000,11.663989013671875,0.042592941057682035,-0.0629283845346421,0.06125298040201887
1760555338899995100,11.6739951171875,0.056302317458391184,-0.08424129474163054,0.024156116009969263
1760555338910001200,11.684001220703125,-0.009590835165977477,-0.029429782096575943,0.03860975317303091
1760555338920007000,11.6940068359375,0.06070084467828273,-0.02399663286563009,0.01943465871233493
1760555338930013000,11.704012939453126,0.06096738665997982,-0.05783979269135743,-0.0023977087914943693
1760555338940019200,11.714019287109375,0.016994973942637444,-0.08896278857188299,-0.0008599595638923346
1760555338950025000,11.72402490234375,0.05355331101119518,-0.09810810846006497,0.006459240875672549
1760555338960031000,11.734031005859375,0.01918225485384464,-0.07439867677167057,0.021804255654197184
1760555338970037000,11.744037109375,0.08042495132386684,-0.057829161699488756,0.044031467694509774
1760555338980043000,11.75404296875,0.049773207950592036,-0.05170691595952957,0.05037975900899619
1760555338990048000,11.764048095703124,0.04533434872031212,-0.0366380695075728,0.04981980530498549
1760555339000054000,11.774053955078125,0.02414543021917343,0.00863013690765947,0.020669041079189626
1760555339010060000,11.78406005859375,-0.01650046842396259,0.05056655941852368,0.02945235925456509
1760555339020066000,11.794066162109376,0.014057751446962356,0.09616609841366298,0.02809329106211662
1760555339030072000,11.804072021484375,-0.02527472651004791,0.09526367881437763,0.019980291630048302
1760555339040077800,11.814077880859376,-0.005198737686872482,0.09815596618978306,0.029603074570558965
1760555339050084000,11.824083984375,-0.01519347747862339,0.09725852415971457,0.019877689772099257
1760555339060090000,11.834090087890624,-0.01695931810736656,0.0756286660911981,0.029049788069352506
1760555339070096100,11.84409619140625,0.040491584864258766,0.038514302575075994,0.06684795086486264
1760555339080102000,11.854101806640625,0.038670214655995364,-0.011174862087564541,0.06929638519659638
1760555339090108000,11.86410791015625,0.04492927505075931,0.015578531273454427,0.06061568714547902
1760555339100114200,11.8741142578125,0.003331190249323845,0.0007245696811936795,0.03832965759001672
1760555339110120000,11.884119873046876,0.009789572608470916,-0.012685403647832572,0.01887454061154276
1760555339120126000,11.8941259765625,0.04257540540099144,-0.04178746989369392,0.030472733544558286
1760555339130132000,11.904132080078124,0.042563714963197705,-0.03933925475766882,0.04452358032669872
1760555339140138200,11.91413818359375,0.06648936495184898,0.008340853371191769,0.04495123115424066
1760555339150144000,11.92414404296875,0.013248188629746437,-0.00468032156964764,0.013887692109681665
1760555339160150000,11.93414990234375,-0.022896891462802885,-0.03962267480893061,0.021336692941375076
1760555339170156000,11.944156005859375,0.0446598104596138,-0.06889103753240779,0.020264972056634724
1760555339180162000,11.954162109375,0.07657119850516318,-0.07926815510471351,0.01795346197756007
1760555339190168000,11.96416796875,0.07123100652098656,-0.045772667072340845,0.026988471625372767
1760555339200174000,11.974174072265624,0.01595160236954689,-0.0506219154681079,0.024664394325669855
1760555339210180000,11.98418017578125,-0.011335633006691931,-0.023159898913698268,0.017550507199857384
1760555339220186000,11.99418603515625,0.009543488892912864,0.014485658002831041,0.018420093108620493
1760555339230191900,12.00419189453125,0.0389303268969059,-0.003457529175886884,0.01915523898275569
1760555339240198100,12.0141982421875,0.03854804958105087,0.0011581387928687036,0.02028459007255733
1760555339250204200,12.0242041015625,0.023672552010416983,-0.017701980567676946,0.018853972747549415
1760555339260210000,12.0342099609375,-0.023389643415808677,0.025033958290424197,0.05252230572933331
1760555339270216000,12.0442158203125,-0.0006143325060606002,0.07131169794122688,0.09590078940782695
1760555339280222000,12.054221923828125,0.017028291690349577,0.10429744635317474,0.10112137360032647
1760555339290228500,12.064228515625,0.007744915038347244,0.061977011227095494,0.058108764092158524
1760555339300234200,12.074234130859375,0.009572714987397193,0.01988256687661633,-0.00206266815084964
1760555339310240500,12.084240478515625,0.013975918382406234,-0.042967409526417026,-0.016874964292161166
1760555339320245500,12.09424560546875,0.0415618444442749,-0.024745396273164078,-0.00813117440957576
1760555339330251500,12.10425146484375,0.021227496945858,0.029512263615103437,0.030155721750948578
1760555339340257300,12.11425732421875,0.02708031462728977,0.017027396641205995,0.06555517110796645
1760555339350263300,12.12426318359375,0.010496844094991683,0.05458184120818041,0.04476279591005295
1760555339360269300,12.134269287109374,-0.025239070674777028,0.035674686101824046,0.0627488632492721
1760555339370275600,12.144275634765625,0.034762101301550864,0.014305689192889258,0.0793671311003156
1760555339380281300,12.15428125,0.04205693448483944,0.002339329667761922,0.1012423330988735
1760555339390287400,12.164287353515626,0.06131108553111553,-0.009297651772527024,0.1106520578105934
1760555339400293400,12.17429345703125,0.035377602851390834,0.0030121508954092857,0.05456831500632688
