time,seconds_elapsed,z,y,x
1760554946455611000,0.06761083984375,-0.963897705078125,-0.2599639892578125,0.071868896484375
1760554946465615000,0.077614990234375,-0.9619293212890625,-0.26361083984375,0.0738983154296875
1760554946475620000,0.0876201171875,-0.961639404296875,-0.260498046875,0.0719757080078125
1760554946485624000,0.0976240234375,-0.9654388427734375,-0.25750732421875,0.0700531005859375
1760554946495629000,0.107629150390625,-0.9552154541015625,-0.272979736328125,0.077484130859375
1760554946505632800,0.1176328125,-0.9357757568359375,-0.298675537109375,0.0736236572265625
1760554946515637800,0.1276376953125,-0.940338134765625,-0.2932891845703125,0.0691070556640625
1760554946525642000,0.13764208984375,-0.941619873046875,-0.28875732421875,0.065521240234375
1760554946535647000,0.14764697265625,-0.942596435546875,-0.2887420654296875,0.065155029296875
1760554946545651000,0.15765087890625,-0.9446258544921875,-0.2845001220703125,0.066680908203125
1760554946555656000,0.167656005859375,-0.9514923095703125,-0.2734222412109375,0.0705718994140625
1760554946565660000,0.177659912109375,-0.9539337158203125,-0.268310546875,0.07269287109375
1760554946575665000,0.187664794921875,-0.9566650390625,-0.264373779296875,0.06976318359375
1760554946585669000,0.197669189453125,-0.9621429443359375,-0.2509765625,0.0673675537109375
1760554946595674000,0.207674072265625,-0.9682464599609375,-0.241058349609375,0.071533203125
1760554946605677800,0.217677734375,-0.9691925048828125,-0.2379913330078125,0.0717315673828125
1760554946615682800,0.227682861328125,-0.9683837890625,-0.2383270263671875,0.0691680908203125
1760554946625686800,0.237686767578125,-0.961761474609375,-0.24365234375,0.069244384765625
1760554946635691800,0.24769189453125,-0.9564666748046875,-0.253814697265625,0.061859130859375
1760554946645696000,0.257696044921875,-0.948944091796875,-0.2627410888671875,0.065216064453125
1760554946655700000,0.267699951171875,-0.9542388916015625,-0.25238037109375,0.0654449462890625
1760554946665705000,0.277705078125,-0.961700439453125,-0.239471435546875,0.0610504150390625
1760554946675709000,0.287708984375,-0.95843505859375,-0.23870849609375,0.0648040771484375
1760554946685714000,0.2977138671875,-0.9503936767578125,-0.2515869140625,0.064697265625
1760554946695718100,0.30771826171875,-0.935760498046875,-0.272125244140625,0.06109619140625
1760554946705723100,0.31772314453125,-0.9267120361328125,-0.280853271484375,0.0604400634765625
1760554946715726800,0.327726806640625,-0.9229736328125,-0.283843994140625,0.0569305419921875
1760554946725731800,0.33773193359375,-0.930328369140625,-0.263641357421875,0.056793212890625
1760554946735735800,0.34773583984375,-0.943603515625,-0.2385711669921875,0.06201171875
1760554946745740800,0.35774072265625,-0.9561614990234375,-0.2114715576171875,0.06732177734375
1760554946755745000,0.3677451171875,-0.963134765625,-0.1941680908203125,0.0674285888671875
1760554946765750000,0.37775,-0.97259521484375,-0.1731109619140625,0.0669097900390625
1760554946775754000,0.38775390625,-0.9828948974609375,-0.1480560302734375,0.0681304931640625
1760554946785759000,0.397759033203125,-0.99346923828125,-0.1224517822265625,0.0552825927734375
1760554946795763000,0.407762939453125,-1.0052642822265625,-0.0921630859375,0.0555572509765625
1760554946805768000,0.417767822265625,-1.0149688720703125,-0.0668792724609375,0.0548553466796875
1760554946815772200,0.427772216796875,-1.02215576171875,-0.0460357666015625,0.051300048828125
1760554946825777200,0.437777099609375,-1.02484130859375,-0.0334014892578125,0.0582427978515625
1760554946835780900,0.44778076171875,-1.0237579345703125,-0.03424072265625,0.062164306640625
1760554946845785900,0.457785888671875,-1.0190582275390625,-0.0319061279296875,0.0756072998046875
1760554946855789800,0.467789794921875,-1.0142364501953125,-0.033966064453125,0.0872039794921875
1760554946865794800,0.477794921875,-0.999664306640625,-0.06005859375,0.0867462158203125
1760554946875799000,0.487799072265625,-0.995147705078125,-0.065032958984375,0.090240478515625
1760554946885804000,0.497803955078125,-0.9981689453125,-0.050567626953125,0.087158203125
1760554946895808000,0.50780810546875,-1.00579833984375,-0.030914306640625,0.076629638671875
1760554946905813200,0.517813232421875,-1.0113525390625,-0.018585205078125,0.072906494140625
1760554946915817200,0.527817138671875,-1.010345458984375,-0.0179443359375,0.059478759765625
1760554946925821200,0.5378212890625,-1.0015106201171875,-0.0299835205078125,0.0642242431640625
1760554946935826200,0.547826171875,-0.997100830078125,-0.03631591796875,0.072998046875
1760554946945830400,0.557830322265625,-1.0054779052734375,-0.0171661376953125,0.064117431640625
1760554946955835400,0.56783544921875,-1.02325439453125,0.0274505615234375,0.0622711181640625
1760554946965839000,0.577839111328125,-1.0308074951171875,0.0559234619140625,0.0507049560546875
1760554946975844000,0.587843994140625,-1.028289794921875,0.0570526123046875,0.048919677734375
1760554946985848000,0.59784814453125,-1.0193634033203125,0.042022705078125,0.05633544921875
1760554946995853300,0.607853271484375,-1.016448974609375,0.0345611572265625,0.049468994140625
1760554947005857300,0.617857177734375,-1.012451171875,0.029296875,0.0551605224609375
1760554947015862300,0.6278623046875,-1.0098419189453125,0.015838623046875,0.0546417236328125
1760554947025866200,0.6378662109375,-1.0081634521484375,0.0059051513671875,0.0400848388671875
1760554947035871200,0.647871337890625,-1.005462646484375,0.0040130615234375,0.0391082763671875
1760554947045875200,0.657875244140625,-1.00732421875,0.0068817138671875,0.0365753173828125
1760554947055880200,0.667880126953125,-1.01043701171875,0.0113372802734375,0.0365142822265625
1760554947065884400,0.677884521484375,-1.0142974853515625,0.0254669189453125,0.040618896484375
1760554947075889400,0.687889404296875,-1.0248565673828125,0.0438079833984375,0.031982421875
1760554947085893000,0.69789306640625,-1.0269012451171875,0.0362701416015625,0.0233154296875
1760554947095898000,0.707898193359375,-1.02490234375,0.01995849609375,0.02606201171875
1760554947105902000,0.717902099609375,-1.017364501953125,0.0035858154296875,0.0311126708984375
1760554947115907000,0.727906982421875,-1.012939453125,-0.0101776123046875,0.0272216796875
1760554947125911300,0.737911376953125,-1.0049285888671875,-0.028656005859375,0.0396270751953125
1760554947135916300,0.747916259765625,-1.0005645751953125,-0.0416107177734375,0.0641021728515625
1760554947145920300,0.757920166015625,-0.9946136474609375,-0.0581207275390625,0.0700225830078125
1760554947155925200,0.76792529296875,-0.98663330078125,-0.0780181884765625,0.076995849609375
1760554947165929200,0.77792919921875,-0.970458984375,-0.110931396484375,0.07244873046875
1760554947175934200,0.787934326171875,-0.9629364013671875,-0.136383056640625,0.0548858642578125
1760554947185938400,0.7979384765625,-0.964630126953125,-0.1350250244140625,0.051025390625
1760554947195943400,0.807943359375,-0.963104248046875,-0.13909912109375,0.052978515625
1760554947205947100,0.817947021484375,-0.962615966796875,-0.1424560546875,0.0430755615234375
1760554947215951000,0.827951171875,-0.9643402099609375,-0.140045166015625,0.0312652587890625
1760554947225956000,0.8379560546875,-0.969085693359375,-0.1298675537109375,0.02874755859375
1760554947235960300,0.847960205078125,-0.977447509765625,-0.115264892578125,0.0224761962890625
1760554947245965300,0.85796533203125,-0.9951934814453125,-0.0800323486328125,0.02825927734375
1760554947255969300,0.86796923828125,-1.011871337890625,-0.04486083984375,0.0318603515625
1760554947265974300,0.877974365234375,-1.0235137939453125,-0.020355224609375,0.0318756103515625
1760554947275978200,0.887978271484375,-1.0274505615234375,-0.011505126953125,0.0319671630859375
1760554947285983200,0.897983154296875,-1.0221099853515625,-0.0209503173828125,0.0372772216796875
1760554947295987500,0.907987548828125,-1.011322021484375,-0.04571533203125,0.054901123046875
1760554947305992400,0.917992431640625,-0.983673095703125,-0.09979248046875,0.0447235107421875
1760554947315996200,0.92799609375,-0.9648284912109375,-0.1421661376953125,0.0293731689453125
1760554947326001200,0.938001220703125,-0.958892822265625,-0.1556396484375,0.0293121337890625
1760554947336005000,0.948005126953125,-0.9610443115234375,-0.1523590087890625,0.0223236083984375
1760554947346010000,0.958010009765625,-0.961944580078125,-0.1512298583984375,0.020233154296875
1760554947356014300,0.968014404296875,-0.9599456787109375,-0.15155029296875,0.02642822265625
1760554947366019300,0.978019287109375,-0.9690399169921875,-0.132720947265625,0.03143310546875
1760554947376023300,0.988023193359375,-0.983184814453125,-0.1004486083984375,0.037261962890625
1760554947386028300,0.9980283203125,-0.993927001953125,-0.0801544189453125,0.034576416015625
1760554947396032300,1.0080322265625,-0.993438720703125,-0.0758514404296875,0.0370941162109375
1760554947406037200,1.018037353515625,-0.9976959228515625,-0.064178466796875,0.0445709228515625
1760554947416041200,1.028041259765625,-1.0038604736328125,-0.04327392578125,0.052398681640625
1760554947426046200,1.038046142578125,-1.013275146484375,-0.022003173828125,0.0494842529296875
1760554947436050200,1.04805029296875,-1.0177154541015625,-0.0054931640625,0.0479888916015625
1760554947446055200,1.05805517578125,-1.017608642578125,-0.0067138671875,0.046661376953125
1760554947456059100,1.06805908203125,-1.0133209228515625,-0.0090179443359375,0.05194091796875
1760554947466064100,1.078064208984375,-1.012451171875,-0.00665283203125,0.0597686767578125
1760554947476068400,1.088068359375,-1.012664794921875,-0.01068115234375,0.063446044921875
1760554947486073300,1.0980732421875,-1.009033203125,-0.0146484375,0.0638275146484375
1760554947496077300,1.108077392578125,-1.0027618408203125,-0.029632568359375,0.07061767578125
1760554947506081300,1.118081298828125,-0.9910888671875,-0.053802490234375,0.08026123046875
1760554947516086300,1.128086181640625,-0.98187255859375,-0.0737762451171875,0.0819244384765625
1760554947526090200,1.13809033203125,-0.9693603515625,-0.1068878173828125,0.0806427001953125
1760554947536095200,1.14809521484375,-0.9594879150390625,-0.1256256103515625,0.079498291015625
1760554947546099200,1.15809912109375,-0.9585113525390625,-0.1259765625,0.07843017578125
1760554947556104200,1.168104248046875,-0.96868896484375,-0.1060028076171875,0.0670166015625
1760554947566108200,1.178108154296875,-0.9839630126953125,-0.067840576171875,0.07049560546875
1760554947576113200,1.188113037109375,-1.00244140625,-0.024322509765625,0.0541534423828125
1760554947586117400,1.198117431640625,-1.01605224609375,0.0040283203125,0.034210205078125
1760554947596122400,1.208122314453125,-1.0284423828125,0.04449462890625,0.0301513671875
1760554947606126300,1.218126220703125,-1.0307464599609375,0.0538482666015625,0.022796630859375
1760554947616131300,1.22813134765625,-1.0229034423828125,0.0431671142578125,0.028717041015625
1760554947626135300,1.23813525390625,-1.02020263671875,0.037933349609375,0.0252838134765625
1760554947636140300,1.248140380859375,-1.0187835693359375,0.03460693359375,0.0333404541015625
1760554947646144300,1.258144287109375,-1.01055908203125,0.013458251953125,0.0434417724609375
1760554947656149200,1.268149169921875,-1.0029296875,-0.010711669921875,0.0423736572265625
1760554947666153200,1.2781533203125,-0.9946746826171875,-0.034759521484375,0.038604736328125
1760554947676158200,1.288158203125,-0.9874725341796875,-0.0483856201171875,0.03839111328125
1760554947686162200,1.298162109375,-0.9887542724609375,-0.0521087646484375,0.038787841796875
1760554947696167200,1.308167236328125,-0.989471435546875,-0.052642822265625,0.0393829345703125
1760554947706171400,1.31817138671875,-0.9888916015625,-0.051788330078125,0.027008056640625
1760554947716176400,1.32817626953125,-0.987152099609375,-0.05419921875,0.022308349609375
1760554947726180400,1.338180419921875,-0.988311767578125,-0.053985595703125,0.0204315185546875
1760554947736185300,1.348185302734375,-0.9932861328125,-0.0379180908203125,0.0150146484375
1760554947746189300,1.358189208984375,-1.0007171630859375,-0.0203857421875,0.0110626220703125
1760554947756194300,1.3681943359375,-1.0037384033203125,-0.0109405517578125,0.01080322265625
1760554947766198300,1.3781982421875,-1.0047607421875,-0.00543212890625,0.0127410888671875
1760554947776202200,1.3882021484375,-1.0037994384765625,-0.0066375732421875,0.0119171142578125
1760554947786207200,1.398207275390625,-1.004302978515625,-0.0120086669921875,0.01263427734375
1760554947796211200,1.408211181640625,-0.9996337890625,-0.01788330078125,0.0235137939453125
1760554947806216200,1.41821630859375,-0.9948272705078125,-0.0303802490234375,0.0293121337890625
1760554947816220200,1.42822021484375,-0.990570068359375,-0.04022216796875,0.0310516357421875
1760554947826225400,1.438225341796875,-0.988494873046875,-0.048553466796875,0.0308685302734375
1760554947836229400,1.4482294921875,-0.9860687255859375,-0.05426025390625,0.0405426025390625
1760554947846234400,1.458234375,-0.9884796142578125,-0.0456390380859375,0.0399017333984375
1760554947856238300,1.46823828125,-0.9969329833984375,-0.0172119140625,0.03961181640625
1760554947866243300,1.478243408203125,-1.0069427490234375,0.010467529296875,0.03411865234375
1760554947876247000,1.4882470703125,-1.0078887939453125,0.0214080810546875,0.032073974609375
1760554947886252300,1.498252197265625,-1.0096893310546875,0.0242767333984375,0.0307159423828125
1760554947896256300,1.50825634765625,-1.0088958740234375,0.0247344970703125,0.026336669921875
1760554947906261500,1.518261474609375,-1.010467529296875,0.0305633544921875,0.025299072265625
1760554947916265500,1.528265380859375,-1.0138397216796875,0.0385894775390625,0.030029296875
1760554947926270500,1.5382705078125,-1.0109100341796875,0.0377655029296875,0.03594970703125
1760554947936274400,1.5482744140625,-1.010589599609375,0.0299530029296875,0.0359954833984375
1760554947946279400,1.558279541015625,-1.0068817138671875,0.018829345703125,0.047149658203125
1760554947956283600,1.56828369140625,-1.0025482177734375,0.0045928955078125,0.0449676513671875
1760554947966288600,1.57828857421875,-0.998046875,-0.0096893310546875,0.0401153564453125
1760554947976292600,1.588292724609375,-0.99627685546875,-0.0216217041015625,0.041107177734375
1760554947986297600,1.598297607421875,-0.9935150146484375,-0.038421630859375,0.0332794189453125
1760554947996301300,1.60830126953125,-0.9878387451171875,-0.050048828125,0.0258941650390625
1760554948006306300,1.618306396484375,-0.9894256591796875,-0.04193115234375,0.0190582275390625
1760554948016310500,1.628310546875,-0.9935150146484375,-0.0355987548828125,0.014739990234375
1760554948026314500,1.638314453125,-0.994384765625,-0.03363037109375,0.0133209228515625
1760554948036319500,1.648319580078125,-0.9975128173828125,-0.0255584716796875,0.012908935546875
1760554948046323500,1.658323486328125,-1.0017547607421875,-0.0160980224609375,0.01751708984375
1760554948056328400,1.668328369140625,-1.0047607421875,-0.008941650390625,0.0181427001953125
1760554948066332700,1.678332763671875,-1.0104827880859375,-0.0012969970703125,0.016998291015625
1760554948076337700,1.688337646484375,-1.0130767822265625,0.010406494140625,0.01959228515625
1760554948086341400,1.69834130859375,-1.01312255859375,0.0070648193359375,0.028533935546875
1760554948096346600,1.7083466796875,-1.01458740234375,0.0093994140625,0.03009033203125
1760554948106350300,1.718350341796875,-1.017242431640625,0.009002685546875,0.0346527099609375
1760554948116355300,1.728355224609375,-1.0155181884765625,0.001007080078125,0.041473388671875
1760554948126359600,1.738359619140625,-1.00860595703125,-0.01971435546875,0.032623291015625
1760554948136364500,1.748364501953125,-1.00152587890625,-0.0384979248046875,0.031463623046875
1760554948146368500,1.758368408203125,-0.9969482421875,-0.0511627197265625,0.0238800048828125
1760554948156373500,1.76837353515625,-0.9918670654296875,-0.0645294189453125,0.0050048828125
1760554948166377500,1.77837744140625,-0.9864959716796875,-0.076690673828125,0.011749267578125
1760554948176382500,1.788382568359375,-0.9822845458984375,-0.0887603759765625,0.0077362060546875
1760554948186386700,1.79838671875,-0.9739837646484375,-0.107879638671875,0.0032196044921875
1760554948196391700,1.8083916015625,-0.9668426513671875,-0.121673583984375,0.025909423828125
1760554948206395400,1.8183955078125,-0.9657440185546875,-0.125732421875,0.03338623046875
1760554948216400400,1.828400390625,-0.969512939453125,-0.117767333984375,0.036376953125
1760554948226404400,1.838404296875,-0.9786834716796875,-0.094635009765625,0.0426483154296875
1760554948236409300,1.848409423828125,-0.9892425537109375,-0.076171875,0.0413055419921875
1760554948246413600,1.85841357421875,-0.993316650390625,-0.067291259765625,0.043212890625
1760554948256418600,1.86841845703125,-0.999786376953125,-0.052703857421875,0.04296875
1760554948266422500,1.878422607421875,-1.009765625,-0.035888671875,0.030242919921875
1760554948276427500,1.888427490234375,-1.0120697021484375,-0.0266571044921875,0.0292816162109375
1760554948286431500,1.898431396484375,-1.0166473388671875,-0.0179290771484375,0.027801513671875
1760554948296435700,1.908435791015625,-1.0204620361328125,-0.01324462890625,0.0247955322265625
1760554948306440700,1.918440673828125,-1.014862060546875,-0.0261993408203125,0.0335540771484375
1760554948316444400,1.9284443359375,-0.993804931640625,-0.0705718994140625,0.0276641845703125
1760554948326449400,1.938449462890625,-0.9720916748046875,-0.1114501953125,0.0279083251953125
1760554948336453400,1.948453369140625,-0.9614105224609375,-0.1360931396484375,0.03106689453125
1760554948346458400,1.958458251953125,-0.96502685546875,-0.130645751953125,0.0289764404296875
1760554948356462600,1.968462646484375,-0.969818115234375,-0.11810302734375,0.0297088623046875
1760554948366467600,1.978467529296875,-0.974151611328125,-0.107421875,0.0286865234375
1760554948376471600,1.988471435546875,-0.9806671142578125,-0.0966339111328125,0.0251617431640625
1760554948386476500,1.9984765625,-0.985992431640625,-0.0823211669921875,0.0293121337890625
1760554948396480500,2.00848046875,-0.992584228515625,-0.067535400390625,0.0379638671875
1760554948406485500,2.018485595703125,-1.0036468505859375,-0.0424957275390625,0.0379486083984375
1760554948416489700,2.02848974609375,-1.014312744140625,-0.019195556640625,0.0280914306640625
1760554948426494700,2.03849462890625,-1.015716552734375,-0.014495849609375,0.028656005859375
1760554948436498400,2.04849853515625,-1.01287841796875,-0.01715087890625,0.0313720703125
1760554948446503400,2.05850341796875,-1.012054443359375,-0.017852783203125,0.0284423828125
1760554948456507400,2.06850732421875,-1.01165771484375,-0.0181732177734375,0.0260009765625
1760554948466512400,2.078512451171875,-1.0104827880859375,-0.0185699462890625,0.0299072265625
1760554948476516600,2.0885166015625,-1.0089263916015625,-0.01959228515625,0.030731201171875
1760554948486521600,2.098521484375,-1.008026123046875,-0.021392822265625,0.02978515625
1760554948496525600,2.108525634765625,-1.0067596435546875,-0.0302581787109375,0.0313568115234375
1760554948506530600,2.118530517578125,-0.997650146484375,-0.0537261962890625,0.030120849609375
1760554948516534500,2.128534423828125,-0.986907958984375,-0.0701751708984375,0.032684326171875
1760554948526539500,2.13853955078125,-0.9818572998046875,-0.0819244384765625,0.0332489013671875
1760554948536543500,2.14854345703125,-0.979339599609375,-0.0896759033203125,0.03802490234375
1760554948546547500,2.15854736328125,-0.978729248046875,-0.0879974365234375,0.0352325439453125
1760554948556552400,2.168552490234375,-0.9808807373046875,-0.0832672119140625,0.0338897705078125
1760554948566556400,2.178556396484375,-0.9878997802734375,-0.070281982421875,0.03582763671875
1760554948576561400,2.1885615234375,-0.9929351806640625,-0.05548095703125,0.032470703125
1760554948586565400,2.1985654296875,-1.0010528564453125,-0.03985595703125,0.0290679931640625
1760554948596570400,2.2085703125,-1.0056610107421875,-0.0302886962890625,0.025390625
1760554948606574600,2.21857470703125,-1.0045166015625,-0.030181884765625,0.0289764404296875
1760554948616579600,2.22857958984375,-1.002838134765625,-0.0330047607421875,0.02716064453125
1760554948626583600,2.23858349609375,-1.00372314453125,-0.0317535400390625,0.02423095703125
1760554948636588500,2.248588623046875,-1.0048370361328125,-0.0301971435546875,0.02264404296875
1760554948646592500,2.258592529296875,-1.00286865234375,-0.032012939453125,0.0252838134765625
1760554948656597500,2.268597412109375,-0.99945068359375,-0.039825439453125,0.0261077880859375
1760554948666601500,2.2786015625,-0.996978759765625,-0.046783447265625,0.02508544921875
1760554948676606500,2.2886064453125,-0.996337890625,-0.0497589111328125,0.025604248046875
1760554948686610400,2.2986103515625,-0.99127197265625,-0.056427001953125,0.02581787109375
1760554948696615400,2.308615478515625,-0.98736572265625,-0.069183349609375,0.023956298828125
1760554948706619400,2.318619384765625,-0.9847869873046875,-0.0761260986328125,0.0188446044921875
1760554948716624400,2.328624267578125,-0.9834747314453125,-0.0800628662109375,0.017730712890625
1760554948726628600,2.338628662109375,-0.982635498046875,-0.0776214599609375,0.0161285400390625
1760554948736633600,2.348633544921875,-0.98419189453125,-0.0703582763671875,0.0196533203125
1760554948746637600,2.358637451171875,-0.9893798828125,-0.0616302490234375,0.0238494873046875
1760554948756642600,2.368642578125,-0.991943359375,-0.050262451171875,0.02166748046875
1760554948766646300,2.378646240234375,-1.00439453125,-0.025482177734375,0.0127410888671875
1760554948776651300,2.3886513671875,-1.01373291015625,0.0037384033203125,0.0143280029296875
1760554948786655500,2.398655517578125,-1.0139007568359375,0.0079193115234375,0.0126190185546875
1760554948796660500,2.408660400390625,-1.00848388671875,-0.0025634765625,0.0162200927734375
1760554948806664400,2.41866455078125,-1.0055084228515625,-0.0073089599609375,0.0184478759765625
1760554948816668400,2.42866845703125,-1.00592041015625,-0.0105743408203125,0.0156402587890625
1760554948826673400,2.43867333984375,-1.0044097900390625,-0.0053253173828125,0.018096923828125
1760554948836677600,2.448677734375,-1.0045013427734375,0.000335693359375,0.022308349609375
1760554948846682600,2.4586826171875,-1.0044403076171875,-0.00341796875,0.0250701904296875
1760554948856686600,2.4686865234375,-1.0012359619140625,-0.0187835693359375,0.0293731689453125
1760554948866691600,2.478691650390625,-0.9940032958984375,-0.0364532470703125,0.032989501953125
1760554948876695300,2.4886953125,-0.9906463623046875,-0.0448455810546875,0.032623291015625
1760554948886700300,2.4987001953125,-0.991851806640625,-0.03704833984375,0.0341796875
1760554948896704500,2.50870458984375,-0.996795654296875,-0.026824951171875,0.032073974609375
1760554948906709500,2.51870947265625,-0.9994354248046875,-0.0147552490234375,0.0245208740234375
1760554948916713500,2.52871337890625,-1.0066375732421875,-0.0012969970703125,0.018402099609375
1760554948926718500,2.538718505859375,-1.008453369140625,0.004425048828125,0.0139617919921875
1760554948936722400,2.548722412109375,-1.0079345703125,0.004913330078125,0.016143798828125
1760554948946727400,2.5587275390625,-1.0088653564453125,0.0076751708984375,0.0216522216796875
1760554948956731600,2.568731689453125,-1.0069732666015625,0.0009002685546875,0.02874755859375
1760554948966736600,2.578736572265625,-1.001251220703125,-0.0148773193359375,0.037017822265625
1760554948976740400,2.588740234375,-0.9976654052734375,-0.0233306884765625,0.04217529296875
1760554948986745300,2.598745361328125,-0.9955902099609375,-0.03289794921875,0.0416107177734375
1760554948996749300,2.608749267578125,-0.99090576171875,-0.0440673828125,0.0445098876953125
1760554949006754300,2.61875439453125,-0.9885406494140625,-0.04736328125,0.0443115234375
1760554949016758500,2.628758544921875,-0.991424560546875,-0.044464111328125,0.0423431396484375
1760554949026763500,2.638763427734375,-0.99176025390625,-0.0421295166015625,0.038665771484375
1760554949036767500,2.648767578125,-0.994140625,-0.0356903076171875,0.0325469970703125
1760554949046772500,2.6587724609375,-0.998382568359375,-0.021636962890625,0.02728271484375
1760554949056776400,2.6687763671875,-1.003692626953125,-0.0145721435546875,0.027008056640625
1760554949066780700,2.67878076171875,-1.0048980712890625,-0.01348876953125,0.0244598388671875
1760554949076785700,2.68878564453125,-1.003326416015625,-0.01470947265625,0.02349853515625
1760554949086789400,2.698789306640625,-1.0038909912109375,-0.0156707763671875,0.02838134765625
1760554949096794400,2.70879443359375,-1.0065460205078125,-0.0057830810546875,0.0314788818359375
1760554949106798300,2.71879833984375,-1.0081329345703125,-0.00396728515625,0.0299530029296875
1760554949116803300,2.72880322265625,-1.0068359375,-0.012237548828125,0.0264739990234375
1760554949126807600,2.7388076171875,-1.00299072265625,-0.02569580078125,0.0232696533203125
1760554949136812500,2.7488125,-0.9959564208984375,-0.0369110107421875,0.0249176025390625
1760554949146816500,2.75881640625,-0.9957122802734375,-0.0406494140625,0.0273590087890625
1760554949156821500,2.768821533203125,-0.994049072265625,-0.0412139892578125,0.0299072265625
1760554949166825500,2.778825439453125,-0.9952545166015625,-0.0439605712890625,0.0316925048828125
1760554949176830500,2.78883056640625,-0.996185302734375,-0.044219970703125,0.033294677734375
1760554949186834700,2.798834716796875,-0.9946441650390625,-0.044586181640625,0.0306549072265625
1760554949196839700,2.808839599609375,-0.9941558837890625,-0.0499420166015625,0.0307464599609375
1760554949206843400,2.818843505859375,-0.986785888671875,-0.0659332275390625,0.0290069580078125
1760554949216848400,2.828848388671875,-0.98211669921875,-0.0765838623046875,0.034210205078125
1760554949226852400,2.838852294921875,-0.9825286865234375,-0.07354736328125,0.038116455078125
1760554949236857300,2.848857421875,-0.9875335693359375,-0.0648193359375,0.0330352783203125
1760554949246861600,2.858861572265625,-0.9937744140625,-0.049468994140625,0.0317535400390625
1760554949256866600,2.868866455078125,-0.9993896484375,-0.035980224609375,0.0302581787109375
1760554949266870500,2.87887060546875,-1.0055084228515625,-0.0251007080078125,0.0249481201171875
1760554949276875500,2.88887548828125,-1.0084991455078125,-0.018829345703125,0.0240936279296875
1760554949286879500,2.89887939453125,-1.00762939453125,-0.0213775634765625,0.02777099609375
1760554949296884500,2.908884521484375,-1.0076141357421875,-0.020263671875,0.0322723388671875
1760554949306888400,2.918888427734375,-1.0086517333984375,-0.01641845703125,0.039093017578125
1760554949316893400,2.9288935546875,-1.0127410888671875,-0.0055999755859375,0.0420074462890625
1760554949326897400,2.9388974609375,-1.015045166015625,-0.0012664794921875,0.0487213134765625
1760554949336901400,2.9489013671875,-1.008392333984375,-0.018768310546875,0.0565185546875
1760554949346906400,2.95890625,-1.001373291015625,-0.03656005859375,0.04986572265625
1760554949356910600,2.96891064453125,-0.9949188232421875,-0.0538482666015625,0.0444488525390625
1760554949366915600,2.97891552734375,-0.9937591552734375,-0.0588836669921875,0.0409698486328125
1760554949376919600,2.98891943359375,-0.993194580078125,-0.0608673095703125,0.038116455078125
1760554949386924500,2.998924560546875,-0.9882354736328125,-0.0704193115234375,0.0345916748046875
1760554949396928500,3.008928466796875,-0.9872894287109375,-0.079559326171875,0.028106689453125
1760554949406933500,3.01893359375,-0.9862823486328125,-0.079620361328125,0.0290985107421875
1760554949416937500,3.0289375,-0.9864044189453125,-0.0770416259765625,0.0269622802734375
1760554949426942500,3.0389423828125,-0.988189697265625,-0.074371337890625,0.028289794921875
1760554949436946400,3.048946533203125,-0.9915313720703125,-0.0700836181640625,0.029296875
1760554949446951400,3.058951416015625,-0.9959259033203125,-0.0649566650390625,0.0247039794921875
1760554949456955400,3.068955322265625,-0.9990386962890625,-0.0567474365234375,0.0247039794921875
1760554949466960400,3.07896044921875,-1.0044097900390625,-0.0484161376953125,0.0190277099609375
1760554949476964400,3.08896435546875,-1.005462646484375,-0.04913330078125,0.0206451416015625
1760554949486969300,3.09896923828125,-1.0046539306640625,-0.0496063232421875,0.0160980224609375
1760554949496973600,3.1089736328125,-1.0014495849609375,-0.0575103759765625,0.0101470947265625
1760554949506978600,3.118978515625,-0.99517822265625,-0.06866455078125,0.0164337158203125
1760554949516982500,3.128982421875,-0.9916534423828125,-0.077545166015625,0.0218658447265625
1760554949526987500,3.138987548828125,-0.98907470703125,-0.084014892578125,0.020263671875
1760554949536991200,3.1489912109375,-0.9910125732421875,-0.0821990966796875,0.0234832763671875
1760554949546996500,3.15899658203125,-0.9905548095703125,-0.0791168212890625,0.0223541259765625
1760554949557000400,3.16900048828125,-0.9938812255859375,-0.0745391845703125,0.023651123046875
1760554949567005400,3.17900537109375,-0.9929046630859375,-0.07513427734375,0.0277252197265625
1760554949577009400,3.189009521484375,-0.994476318359375,-0.0767059326171875,0.0283355712890625
1760554949587014400,3.199014404296875,-0.9934539794921875,-0.075927734375,0.034942626953125
1760554949597018400,3.209018310546875,-0.997833251953125,-0.068389892578125,0.036956787109375
1760554949607022600,3.219022705078125,-1.000946044921875,-0.061553955078125,0.034210205078125
1760554949617027600,3.229027587890625,-1.0023345947265625,-0.060089111328125,0.0376129150390625
1760554949627031600,3.239031494140625,-0.99908447265625,-0.0641021728515625,0.0452117919921875
1760554949637036500,3.24903662109375,-0.9957427978515625,-0.074493408203125,0.0435943603515625
1760554949647040300,3.259040283203125,-0.9953765869140625,-0.0757904052734375,0.046722412109375
1760554949657045200,3.269045166015625,-0.9983673095703125,-0.070068359375,0.0483856201171875
1760554949667049500,3.279049560546875,-1.0031585693359375,-0.0589141845703125,0.0457000732421875
1760554949677054500,3.289054443359375,-1.006103515625,-0.0589447021484375,0.0443267822265625
1760554949687058400,3.299058349609375,-1.0020599365234375,-0.066864013671875,0.0479888916015625
1760554949697063400,3.3090634765625,-0.998260498046875,-0.0756683349609375,0.0541229248046875
1760554949707067400,3.3190673828125,-0.9983062744140625,-0.0757598876953125,0.051025390625
1760554949717072400,3.329072265625,-0.9981536865234375,-0.0787506103515625,0.04833984375
1760554949727076600,3.33907666015625,-0.9972991943359375,-0.084625244140625,0.047637939453125
1760554949737081600,3.34908154296875,-0.9920654296875,-0.0958251953125,0.040374755859375
1760554949747085600,3.35908544921875,-0.9836273193359375,-0.114227294921875,0.0423583984375
1760554949757090600,3.369090576171875,-0.9781036376953125,-0.121002197265625,0.0425262451171875
1760554949767094300,3.37909423828125,-0.9796295166015625,-0.117919921875,0.049774169921875
1760554949777099300,3.389099365234375,-0.98529052734375,-0.112396240234375,0.05108642578125
1760554949787103500,3.399103515625,-0.98944091796875,-0.1023101806640625,0.0518341064453125
1760554949797108500,3.4091083984375,-0.9948883056640625,-0.0984649658203125,0.0489959716796875
1760554949807112400,3.419112548828125,-1.000213623046875,-0.0861663818359375,0.0394287109375
1760554949817117400,3.429117431640625,-1.0012969970703125,-0.0840301513671875,0.023681640625
1760554949827121400,3.439121337890625,-0.995513916015625,-0.0980224609375,0.0197906494140625
1760554949837126400,3.44912646484375,-0.9918365478515625,-0.1069488525390625,0.019012451171875
1760554949847130600,3.459130615234375,-0.9973297119140625,-0.094573974609375,0.024139404296875
1760554949857135600,3.469135498046875,-1.00408935546875,-0.0868988037109375,0.0301361083984375
1760554949867139300,3.479139404296875,-1.0040130615234375,-0.090057373046875,0.03570556640625
1760554949877144600,3.48914453125,-0.9951629638671875,-0.10467529296875,0.0337982177734375
1760554949887148300,3.499148193359375,-0.9911956787109375,-0.1116180419921875,0.0253143310546875
1760554949897153300,3.5091533203125,-0.994354248046875,-0.1119842529296875,0.0272979736328125
1760554949907157800,3.51915771484375,-0.9923858642578125,-0.1123809814453125,0.0219879150390625
1760554949917161700,3.52916162109375,-0.9884490966796875,-0.121673583984375,0.0266876220703125
1760554949927166700,3.539166748046875,-0.9863739013671875,-0.128387451171875,0.0324554443359375
1760554949937170700,3.549170654296875,-0.9845428466796875,-0.136138916015625,0.0306549072265625
1760554949947175700,3.55917578125,-0.9778900146484375,-0.143585205078125,0.04132080078125
1760554949957180000,3.569179931640625,-0.979095458984375,-0.1446990966796875,0.0506134033203125
1760554949967185000,3.579184814453125,-0.979461669921875,-0.1475677490234375,0.056243896484375
1760554949977188900,3.58918896484375,-0.9751129150390625,-0.1510009765625,0.0568084716796875
1760554949987193900,3.59919384765625,-0.97607421875,-0.1515350341796875,0.0510101318359375
1760554949997197800,3.60919775390625,-0.98065185546875,-0.1439361572265625,0.0458984375
1760554950007202800,3.619202880859375,-0.9864501953125,-0.13409423828125,0.0455169677734375
1760554950017206800,3.629206787109375,-0.9898681640625,-0.1296844482421875,0.044464111328125
1760554950027211800,3.639211669921875,-0.990966796875,-0.1260223388671875,0.03887939453125
1760554950037215700,3.6492158203125,-0.9935302734375,-0.1199951171875,0.0409088134765625
1760554950047220700,3.659220703125,-1.0015106201171875,-0.1084442138671875,0.04217529296875
1760554950057224700,3.669224609375,-1.0044097900390625,-0.10162353515625,0.0440521240234375
1760554950067229700,3.679229736328125,-1.0108489990234375,-0.09466552734375,0.0402679443359375
1760554950077233700,3.689233642578125,-1.0063018798828125,-0.1040191650390625,0.0417633056640625
1760554950087239000,3.699239013671875,-1.0013275146484375,-0.1138153076171875,0.043243408203125
1760554950097243000,3.709242919921875,-0.996734619140625,-0.1212615966796875,0.044281005859375
1760554950107247900,3.719247802734375,-0.9842987060546875,-0.14361572265625,0.05438232421875
1760554950117251600,3.72925146484375,-0.98162841796875,-0.1494140625,0.0516357421875
1760554950127256600,3.739256591796875,-0.98272705078125,-0.1471405029296875,0.0485687255859375
1760554950137260800,3.7492607421875,-0.982574462890625,-0.14971923828125,0.04681396484375
1760554950147265800,3.759265869140625,-0.98046875,-0.15802001953125,0.0378265380859375
1760554950157269800,3.769269775390625,-0.9773712158203125,-0.1656341552734375,0.0368499755859375
1760554950167274800,3.779274658203125,-0.9768218994140625,-0.1642913818359375,0.0464324951171875
1760554950177278700,3.78927880859375,-0.9836273193359375,-0.1543731689453125,0.043060302734375
1760554950187283700,3.79928369140625,-0.9833831787109375,-0.156463623046875,0.047637939453125
1760554950197287700,3.80928759765625,-0.9811553955078125,-0.159576416015625,0.0604705810546875
1760554950207292700,3.819292724609375,-0.9850921630859375,-0.1524200439453125,0.05731201171875
1760554950217297000,3.829296875,-0.9867401123046875,-0.1523895263671875,0.05535888671875
1760554950227300600,3.839300537109375,-0.9884033203125,-0.1514892578125,0.052459716796875
1760554950237305600,3.8493056640625,-0.9851531982421875,-0.1556549072265625,0.047698974609375
1760554950247309600,3.8593095703125,-0.982452392578125,-0.1621551513671875,0.047088623046875
1760554950257314600,3.869314453125,-0.989227294921875,-0.147918701171875,0.0494384765625
1760554950267318800,3.87931884765625,-0.9933929443359375,-0.1433563232421875,0.0567169189453125
1760554950277323800,3.88932373046875,-0.99310302734375,-0.1436767578125,0.0591888427734375
1760554950287327700,3.89932763671875,-0.9957122802734375,-0.1431427001953125,0.05206298828125
1760554950297332700,3.909332763671875,-0.9931488037109375,-0.1478729248046875,0.052459716796875
1760554950307336700,3.919336669921875,-0.991302490234375,-0.146484375,0.04632568359375
1760554950317341700,3.929341796875,-0.9944915771484375,-0.1453399658203125,0.0430145263671875
1760554950327346000,3.939345947265625,-0.99310302734375,-0.1497344970703125,0.058563232421875
1760554950337351000,3.949350830078125,-0.98468017578125,-0.162353515625,0.051422119140625
1760554950347354600,3.959354736328125,-0.9783477783203125,-0.1776580810546875,0.053802490234375
1760554950357359600,3.969359619140625,-0.9691925048828125,-0.1929168701171875,0.049072265625
1760554950367363600,3.979363525390625,-0.9785003662109375,-0.1809234619140625,0.04241943359375
1760554950377368600,3.98936865234375,-0.9886627197265625,-0.1655120849609375,0.0500030517578125
1760554950387371800,3.999371826171875,-0.993743896484375,-0.157928466796875,0.044647216796875
1760554950397375700,4.009375732421875,-0.9950103759765625,-0.1568145751953125,0.037017822265625
1760554950407380000,4.0193798828125,-0.987701416015625,-0.1651763916015625,0.039642333984375
1760554950417385000,4.029385009765625,-0.986968994140625,-0.1713714599609375,0.04034423828125
1760554950427388700,4.039388671875,-0.9849853515625,-0.1788330078125,0.0402374267578125
1760554950437393700,4.0493935546875,-0.9806365966796875,-0.1851959228515625,0.052886962890625
1760554950447397600,4.059397705078125,-0.9849700927734375,-0.183013916015625,0.056121826171875
1760554950457402600,4.069402587890625,-0.9746551513671875,-0.2012939453125,0.0547943115234375
1760554950467406800,4.07940673828125,-0.970458984375,-0.2099151611328125,0.043243408203125
1760554950477411800,4.089411865234375,-0.96453857421875,-0.2205657958984375,0.049652099609375
1760554950487415800,4.099415771484375,-0.95709228515625,-0.23577880859375,0.046142578125
1760554950497420800,4.1094208984375,-0.9553070068359375,-0.2404937744140625,0.037689208984375
1760554950507424800,4.1194248046875,-0.9581146240234375,-0.2375946044921875,0.0298614501953125
1760554950517429800,4.1294296875,-0.9659423828125,-0.2229156494140625,0.0267791748046875
1760554950527433700,4.139433837890625,-0.98309326171875,-0.1971893310546875,0.03350830078125
1760554950537438700,4.149438720703125,-0.9977569580078125,-0.174896240234375,0.046295166015625
1760554950547442700,4.159442626953125,-1.0024566650390625,-0.1649932861328125,0.054046630859375
1760554950557447700,4.16944775390625,-1.00103759765625,-0.166259765625,0.0485076904296875
1760554950567451600,4.17945166015625,-0.992919921875,-0.1819305419921875,0.0407562255859375
1760554950577456600,4.18945654296875,-0.9900665283203125,-0.1925201416015625,0.03997802734375
1760554950587460900,4.1994609375,-0.99322509765625,-0.18499755859375,0.0436248779296875
1760554950597465900,4.2094658203125,-0.99957275390625,-0.1800079345703125,0.04302978515625
1760554950607469800,4.2194697265625,-0.9943084716796875,-0.1885223388671875,0.036956787109375
1760554950617474800,4.229474853515625,-0.9862213134765625,-0.2040863037109375,0.017333984375
1760554950627478800,4.239478759765625,-0.968231201171875,-0.237396240234375,0.0316009521484375
1760554950637483800,4.24948388671875,-0.9622955322265625,-0.246856689453125,0.036834716796875
1760554950647487700,4.25948779296875,-0.9665985107421875,-0.2427978515625,0.0257568359375
1760554950657492700,4.26949267578125,-0.9583740234375,-0.254913330078125,0.03973388671875
1760554950667496700,4.27949658203125,-0.9596405029296875,-0.2579193115234375,0.04931640625
1760554950677501700,4.289501708984375,-0.9544677734375,-0.2667083740234375,0.0493011474609375
1760554950687505700,4.299505615234375,-0.938995361328125,-0.292327880859375,0.054107666015625
1760554950697510000,4.309510009765625,-0.9327545166015625,-0.30364990234375,0.046630859375
1760554950707515000,4.319514892578125,-0.9422454833984375,-0.292236328125,0.0302581787109375
1760554950717518800,4.329518798828125,-0.9442901611328125,-0.2885589599609375,0.027313232421875
1760554950727523800,4.33952392578125,-0.950042724609375,-0.2834320068359375,0.0294189453125
1760554950737527800,4.34952783203125,-0.95611572265625,-0.2725067138671875,0.0196380615234375
1760554950747532800,4.35953271484375,-0.9580841064453125,-0.272491455078125,0.0315704345703125
1760554950757536800,4.369536865234375,-0.9648590087890625,-0.261383056640625,0.0400390625
1760554950767543800,4.379543701171875,-0.9749298095703125,-0.2487335205078125,0.03857421875
1760554950777547800,4.3895478515625,-0.9730682373046875,-0.25067138671875,0.03216552734375
1760554950787552800,4.399552734375,-0.974456787109375,-0.2468109130859375,0.0284881591796875
1760554950797556700,4.409556640625,-0.9467010498046875,-0.300872802734375,0.0125732421875
1760554950807561700,4.419561767578125,-0.868377685546875,-0.3914794921875,-0.01513671875
1760554950817565700,4.429565673828125,-1.0009613037109375,-0.2233123779296875,0.0181732177734375
1760554950827569700,4.439569580078125,-0.95611572265625,-0.273681640625,0.05621337890625
1760554950837574700,4.44957470703125,-0.9503326416015625,-0.2860870361328125,0.022613525390625
1760554950847579600,4.45957958984375,-0.96527099609375,-0.2593841552734375,0.0617523193359375
1760554950857583900,4.469583984375,-0.964630126953125,-0.2658843994140625,0.0351409912109375
1760554950867587800,4.479587890625,-0.9570159912109375,-0.27703857421875,0.034637451171875
1760554950877592800,4.4895927734375,-0.96563720703125,-0.266693115234375,0.0405120849609375
1760554950887596800,4.4995966796875,-0.9628143310546875,-0.2694549560546875,0.029052734375
1760554950897601800,4.509601806640625,-0.958465576171875,-0.2726593017578125,0.0177764892578125
1760554950907608600,4.519608642578125,-0.9609832763671875,-0.271636962890625,0.0220947265625
1760554950917613600,4.529613525390625,-0.9597015380859375,-0.2732086181640625,0.0301361083984375
1760554950927617500,4.539617431640625,-0.956451416015625,-0.2764129638671875,0.04620361328125
1760554950937622500,4.54962255859375,-0.9623565673828125,-0.27008056640625,0.0556488037109375
1760554950947626200,4.559626220703125,-0.9610748291015625,-0.27325439453125,0.0444793701171875
1760554950957631200,4.56963134765625,-0.9589080810546875,-0.2722930908203125,0.052459716796875
1760554950967635500,4.579635498046875,-0.9611358642578125,-0.2701873779296875,0.0625762939453125
1760554950977640400,4.589640380859375,-0.9611358642578125,-0.266937255859375,0.0707855224609375
1760554950987644400,4.59964453125,-0.9615631103515625,-0.2716522216796875,0.0646820068359375
1760554950997649400,4.6096494140625,-0.9598846435546875,-0.27142333984375,0.0573272705078125
1760554951007653400,4.6196533203125,-0.95989990234375,-0.27020263671875,0.0589599609375
1760554951017658400,4.629658447265625,-0.958892822265625,-0.269683837890625,0.0623321533203125
1760554951027662600,4.63966259765625,-0.957977294921875,-0.2714996337890625,0.0583038330078125
1760554951037667600,4.64966748046875,-0.9584503173828125,-0.2708282470703125,0.05389404296875
1760554951047671600,4.659671630859375,-0.9588165283203125,-0.2697296142578125,0.0603790283203125
1760554951057676500,4.669676513671875,-0.9596099853515625,-0.26904296875,0.06329345703125
1760554951067680300,4.67968017578125,-0.9597930908203125,-0.2705535888671875,0.058929443359375
1760554951077685200,4.689685302734375,-0.9603271484375,-0.27069091796875,0.060791015625
1760554951087689500,4.699689453125,-0.9620819091796875,-0.2683258056640625,0.066314697265625
1760554951097694500,4.709694580078125,-0.96026611328125,-0.2690887451171875,0.063079833984375
1760554951107698400,4.719698486328125,-0.9628753662109375,-0.2681427001953125,0.0616455078125
1760554951117703400,4.729703369140625,-0.9603118896484375,-0.2702484130859375,0.0625152587890625
1760554951127707400,4.739707275390625,-0.959869384765625,-0.2724609375,0.05609130859375
1760554951137712400,4.74971240234375,-0.9604644775390625,-0.2726287841796875,0.0520477294921875
1760554951147716600,4.759716552734375,-0.959991455078125,-0.27239990234375,0.0530853271484375
1760554951157721600,4.7697216796875,-0.959625244140625,-0.2725830078125,0.05413818359375
1760554951167725600,4.7797255859375,-0.961517333984375,-0.27130126953125,0.059600830078125
1760554951177730600,4.78973046875,-0.9604034423828125,-0.2685699462890625,0.0646820068359375
1760554951187734300,4.799734375,-0.960205078125,-0.2708587646484375,0.0606231689453125
1760554951197739300,4.8097392578125,-0.9600830078125,-0.271209716796875,0.05712890625
1760554951207743500,4.819743408203125,-0.960235595703125,-0.2700653076171875,0.0567779541015625
1760554951217747500,4.82974755859375,-0.9600067138671875,-0.27142333984375,0.051300048828125
1760554951227752400,4.83975244140625,-0.958892822265625,-0.271820068359375,0.0521697998046875
1760554951237756400,4.84975634765625,-0.9592437744140625,-0.2689056396484375,0.0587310791015625
1760554951247761400,4.859761474609375,-0.9591522216796875,-0.2711181640625,0.0563812255859375
1760554951257765600,4.869765625,-0.9611358642578125,-0.272003173828125,0.05267333984375
1760554951267770600,4.8797705078125,-0.9609527587890625,-0.2702484130859375,0.0568084716796875
1760554951277774600,4.889774658203125,-0.9608001708984375,-0.27069091796875,0.0569000244140625
1760554951287779600,4.899779541015625,-0.96044921875,-0.2696075439453125,0.0586395263671875
1760554951297783300,4.909783203125,-0.9579620361328125,-0.2746124267578125,0.062744140625
1760554951307788300,4.919788330078125,-0.95538330078125,-0.2789154052734375,0.05535888671875
1760554951317792500,4.92979248046875,-0.95843505859375,-0.2747344970703125,0.04998779296875
1760554951327797500,4.939797607421875,-0.9615478515625,-0.269927978515625,0.05731201171875
1760554951337801500,4.949801513671875,-0.9586029052734375,-0.2726593017578125,0.0612030029296875
1760554951347806500,4.959806396484375,-0.9564208984375,-0.274932861328125,0.0618896484375
1760554951357810400,4.969810546875,-0.959320068359375,-0.27081298828125,0.0440216064453125
1760554951367815400,4.9798154296875,-0.958648681640625,-0.274688720703125,0.0345001220703125
1760554951377819600,4.989819580078125,-0.95989990234375,-0.2705230712890625,0.0572509765625
1760554951387824600,4.99982470703125,-0.96795654296875,-0.2567138671875,0.0760345458984375
1760554951397828400,5.009828369140625,-0.9630279541015625,-0.2649078369140625,0.058746337890625
1760554951407833600,5.01983349609375,-0.9611053466796875,-0.26953125,0.055816650390625
1760554951417837300,5.02983740234375,-0.96075439453125,-0.268646240234375,0.054107666015625
1760554951427842300,5.03984228515625,-0.9592742919921875,-0.2708740234375,0.04998779296875
1760554951437846500,5.049846435546875,-0.9566497802734375,-0.2722930908203125,0.0452880859375
1760554951447851500,5.0598515625,-0.9574127197265625,-0.2741851806640625,0.0409393310546875
1760554951457855500,5.06985546875,-0.954986572265625,-0.2753448486328125,0.0486602783203125
1760554951467860500,5.079860595703125,-0.95037841796875,-0.285003662109375,0.0665283203125
1760554951477864400,5.089864501953125,-0.9167327880859375,-0.3289642333984375,0.07568359375
1760554951487869400,5.099869384765625,-0.93609619140625,-0.3024444580078125,0.0702972412109375
1760554951497873700,5.109873779296875,-0.9690093994140625,-0.2560272216796875,0.079681396484375
1760554951507878700,5.119878662109375,-0.9808349609375,-0.23614501953125,0.0826568603515625
1760554951517882400,5.12988232421875,-0.970977783203125,-0.2488555908203125,0.0673065185546875
1760554951527887400,5.139887451171875,-0.9677276611328125,-0.2519683837890625,0.0577850341796875
1760554951537891300,5.149891357421875,-0.9711151123046875,-0.2451934814453125,0.0611724853515625
1760554951547896300,5.159896240234375,-0.9747314453125,-0.241485595703125,0.0594482421875
1760554951557900500,5.169900634765625,-0.97528076171875,-0.24029541015625,0.0577239990234375
1760554951567905500,5.179905517578125,-0.9864501953125,-0.222137451171875,0.0605621337890625
1760554951577909500,5.189909423828125,-0.99017333984375,-0.218353271484375,0.055206298828125
1760554951587914500,5.19991455078125,-0.980072021484375,-0.2300262451171875,0.0569305419921875
1760554951597918500,5.20991845703125,-0.970367431640625,-0.248199462890625,0.050811767578125
1760554951607923500,5.21992333984375,-0.962921142578125,-0.258758544921875,0.042755126953125
1760554951617927400,5.229927490234375,-0.95513916015625,-0.27239990234375,0.0353546142578125
1760554951627931400,5.239931396484375,-0.94384765625,-0.290374755859375,0.0188140869140625
1760554951637936400,5.249936279296875,-0.9281768798828125,-0.3120574951171875,0.0167236328125
1760554951647940400,5.2599404296875,-0.920166015625,-0.32366943359375,0.011260986328125
1760554951657945300,5.2699453125,-0.92041015625,-0.322418212890625,0.011138916015625
1760554951667949300,5.27994921875,-0.9290771484375,-0.3077850341796875,0.026031494140625
1760554951677954600,5.28995458984375,-0.9463653564453125,-0.2752227783203125,0.0465545654296875
1760554951687958500,5.29995849609375,-0.9639739990234375,-0.251220703125,0.048553466796875
1760554951697963500,5.309963623046875,-0.971160888671875,-0.2370452880859375,0.0489349365234375
1760554951707967500,5.319967529296875,-0.9790191650390625,-0.2205352783203125,0.05023193359375
1760554951717972500,5.329972412109375,-0.9903717041015625,-0.200927734375,0.053131103515625
1760554951727976400,5.3399765625,-1.0054779052734375,-0.176239013671875,0.05010986328125
1760554951737981400,5.3499814453125,-1.008056640625,-0.1680145263671875,0.04766845703125
1760554951747985400,5.3599853515625,-1.0092010498046875,-0.1657867431640625,0.04498291015625
1760554951757990400,5.369990478515625,-1.01531982421875,-0.151458740234375,0.0418701171875
1760554951767994400,5.379994384765625,-1.0172271728515625,-0.14898681640625,0.0520172119140625
1760554951777999400,5.389999267578125,-1.0108795166015625,-0.16046142578125,0.0608367919921875
1760554951788003300,5.40000341796875,-0.99725341796875,-0.1825103759765625,0.062652587890625
1760554951798008300,5.41000830078125,-0.9784393310546875,-0.215057373046875,0.0561370849609375
1760554951808012500,5.420012451171875,-0.9664306640625,-0.2364501953125,0.0476226806640625
1760554951818017500,5.430017578125,-0.9599761962890625,-0.248016357421875,0.0370635986328125
1760554951828021500,5.440021484375,-0.947479248046875,-0.2686767578125,0.020111083984375
1760554951838026500,5.450026611328125,-0.93597412109375,-0.2893218994140625,0.0161285400390625
1760554951848030500,5.460030517578125,-0.935333251953125,-0.289581298828125,0.0239105224609375
1760554951858035500,5.470035400390625,-0.9410400390625,-0.2834320068359375,0.02655029296875
1760554951868039400,5.480039306640625,-0.94537353515625,-0.275299072265625,0.040985107421875
1760554951878044400,5.49004443359375,-0.9547576904296875,-0.25860595703125,0.0460662841796875
1760554951888048400,5.50004833984375,-0.9559326171875,-0.253448486328125,0.050262451171875
1760554951898053400,5.510053466796875,-0.9617767333984375,-0.2428436279296875,0.052032470703125
1760554951908054500,5.520054443359375,-0.9742431640625,-0.2235260009765625,0.036163330078125
1760554951918059500,5.5300595703125,-0.98175048828125,-0.2089080810546875,0.0373687744140625
1760554951928063700,5.540063720703125,-0.990814208984375,-0.1929168701171875,0.038543701171875
1760554951938068700,5.55006884765625,-1.0102691650390625,-0.1630096435546875,0.031646728515625
1760554951948072700,5.56007275390625,-1.019622802734375,-0.147705078125,0.0375823974609375
1760554951958077700,5.57007763671875,-1.0142974853515625,-0.15301513671875,0.0437164306640625
1760554951968081700,5.58008154296875,-1.0069122314453125,-0.16644287109375,0.04400634765625
1760554951978086700,5.590086669921875,-1.0032501220703125,-0.173095703125,0.0513153076171875
1760554951988090600,5.600090576171875,-0.9963836669921875,-0.184478759765625,0.0500946044921875
1760554951998095600,5.610095703125,-0.9849395751953125,-0.2050933837890625,0.0551300048828125
1760554952008099600,5.620099609375,-0.97698974609375,-0.220306396484375,0.05438232421875
1760554952018103600,5.630103515625,-0.9751739501953125,-0.225921630859375,0.0470428466796875
1760554952028108500,5.640108642578125,-0.9745941162109375,-0.2279815673828125,0.03643798828125
1760554952038112800,5.65011279296875,-0.96954345703125,-0.2361602783203125,0.0279693603515625
1760554952048117800,5.66011767578125,-0.96466064453125,-0.24267578125,0.0269012451171875
1760554952058121700,5.670121826171875,-0.9667510986328125,-0.2447052001953125,0.0237579345703125
1760554952068126700,5.680126708984375,-0.964202880859375,-0.2482757568359375,0.0250091552734375
1760554952078130700,5.690130615234375,-0.9664459228515625,-0.25030517578125,0.0300140380859375
1760554952088135700,5.7001357421875,-0.97088623046875,-0.24261474609375,0.0341033935546875
1760554952098139600,5.7101396484375,-0.9730072021484375,-0.2404327392578125,0.042327880859375
1760554952108144600,5.72014453125,-0.970123291015625,-0.2471466064453125,0.0400390625
1760554952118148600,5.730148681640625,-0.96783447265625,-0.2505340576171875,0.0148162841796875
1760554952128153600,5.740153564453125,-0.96551513671875,-0.255828857421875,0.0066070556640625
1760554952138157600,5.750157470703125,-0.9616546630859375,-0.2625885009765625,-0.0045166015625
1760554952148162600,5.76016259765625,-0.9673919677734375,-0.2571258544921875,-0.00689697265625
1760554952158166500,5.77016650390625,-0.966827392578125,-0.2604522705078125,0.004302978515625
1760554952168171500,5.780171630859375,-0.961578369140625,-0.27606201171875,0.00775146484375
1760554952178175700,5.79017578125,-0.76348876953125,-0.5330657958984375,-0.0438385009765625
1760554952188180700,5.8001806640625,-1.0108795166015625,-0.2324981689453125,-0.0205078125
1760554952198184700,5.810184814453125,-0.9765472412109375,-0.237030029296875,0.0588226318359375
1760554952208189700,5.820189697265625,-0.9308929443359375,-0.30584716796875,0.03369140625
1760554952218193400,5.830193359375,-0.9682464599609375,-0.26849365234375,0.0157318115234375
1760554952228198700,5.84019873046875,-0.962127685546875,-0.2700347900390625,0.037109375
1760554952238202600,5.85020263671875,-0.95721435546875,-0.27642822265625,0.0393829345703125
1760554952248207600,5.86020751953125,-0.96185302734375,-0.2726287841796875,0.023193359375
1760554952258211600,5.870211669921875,-0.9609527587890625,-0.2739105224609375,0.0167083740234375
1760554952268216600,5.880216552734375,-0.960784912109375,-0.272216796875,0.0176849365234375
1760554952278220500,5.890220458984375,-0.9601287841796875,-0.2728729248046875,0.0140380859375
1760554952288225500,5.9002255859375,-0.9595947265625,-0.2735443115234375,0.0103759765625
1760554952298229800,5.910229736328125,-0.9630279541015625,-0.269561767578125,0.01953125
1760554952308234800,5.92023486328125,-0.964569091796875,-0.2685089111328125,0.02581787109375
1760554952318238700,5.93023876953125,-0.9616241455078125,-0.2710418701171875,0.02490234375
1760554952328243700,5.94024365234375,-0.960693359375,-0.27227783203125,0.0200958251953125
1760554952338247400,5.950247314453125,-0.9615478515625,-0.2705078125,0.022796630859375
1760554952348252400,5.96025244140625,-0.9610137939453125,-0.271575927734375,0.0263671875
1760554952358256600,5.970256591796875,-0.9610443115234375,-0.2721405029296875,0.0225372314453125
1760554952368261600,5.98026171875,-0.9584503173828125,-0.2733306884765625,0.021636962890625
1760554952378265600,5.990265625,-0.9549407958984375,-0.2787017822265625,0.01849365234375
1760554952388270600,6.0002705078125,-0.9616851806640625,-0.272430419921875,0.024200439453125
1760554952398274600,6.010274658203125,-0.959320068359375,-0.2739105224609375,0.020172119140625
1760554952408279600,6.020279541015625,-0.9591217041015625,-0.2734375,0.0233306884765625
1760554952418283800,6.03028369140625,-0.963714599609375,-0.26708984375,0.0320892333984375
1760554952428287500,6.04028759765625,-0.959747314453125,-0.2724609375,0.0166778564453125
1760554952438292700,6.050292724609375,-0.9557342529296875,-0.2779693603515625,0.0046844482421875
1760554952448297700,6.060297607421875,-0.943939208984375,-0.2973480224609375,0.00103759765625
1760554952458301400,6.070301513671875,-0.9105987548828125,-0.3454132080078125,-0.0124053955078125
1760554952468306400,6.080306396484375,-0.9056243896484375,-0.3526763916015625,-0.0250244140625
1760554952478310700,6.090310546875,-0.9066619873046875,-0.3465118408203125,-0.0101165771484375
1760554952488314600,6.100314697265625,-0.9155120849609375,-0.331817626953125,0.012969970703125
1760554952498319600,6.110319580078125,-0.92376708984375,-0.3195953369140625,0.023162841796875
1760554952508323600,6.120323486328125,-0.9426727294921875,-0.287811279296875,0.05181884765625
1760554952518328600,6.13032861328125,-0.978057861328125,-0.2311859130859375,0.0543365478515625
1760554952528332800,6.140332763671875,-0.9794464111328125,-0.226043701171875,0.0198211669921875
1760554952538337800,6.150337890625,-0.969329833984375,-0.236480712890625,0.0135040283203125
1760554952548341500,6.160341552734375,-0.974365234375,-0.22271728515625,0.00946044921875
1760554952558346500,6.170346435546875,-0.985443115234375,-0.2010955810546875,0.013580322265625
1760554952568350500,6.1803505859375,-0.9888763427734375,-0.19219970703125,0.026275634765625
1760554952578355500,6.19035546875,-0.986541748046875,-0.193695068359375,0.0191802978515625
1760554952588359700,6.200359619140625,-0.983367919921875,-0.1970367431640625,0.0203704833984375
1760554952598364700,6.21036474609375,-0.9871978759765625,-0.184967041015625,0.0312347412109375
1760554952608368600,6.22036865234375,-0.9874267578125,-0.1818695068359375,0.0327911376953125
1760554952618373600,6.23037353515625,-0.9780731201171875,-0.19293212890625,0.0425872802734375
1760554952628377600,6.240377685546875,-0.9622802734375,-0.2220306396484375,0.028839111328125
1760554952638382600,6.250382568359375,-0.9344635009765625,-0.2664947509765625,0.0180206298828125
1760554952648386800,6.26038671875,-0.912384033203125,-0.29620361328125,0.0334014892578125
1760554952658391800,6.270391845703125,-0.907562255859375,-0.3013458251953125,0.039154052734375
1760554952668395500,6.2803955078125,-0.9139251708984375,-0.2834014892578125,0.054931640625
1760554952678400500,6.290400390625,-0.917572021484375,-0.2649383544921875,0.065704345703125
1760554952688404500,6.300404541015625,-0.9280548095703125,-0.2416534423828125,0.0608062744140625
1760554952698409500,6.310409423828125,-0.935394287109375,-0.22210693359375,0.0559539794921875
1760554952708413700,6.32041357421875,-0.953277587890625,-0.1815338134765625,0.05718994140625
1760554952718418700,6.330418701171875,-0.974609375,-0.1305084228515625,0.0478057861328125
1760554952728422700,6.340422607421875,-1.0063629150390625,-0.072235107421875,0.048858642578125
1760554952738427600,6.350427734375,-1.031402587890625,-0.0146636962890625,0.055755615234375
1760554952748431600,6.360431640625,-1.0399322509765625,0.010284423828125,0.0559234619140625
1760554952758436600,6.3704365234375,-1.045501708984375,0.03192138671875,0.053924560546875
1760554952768440800,6.38044091796875,-1.0459442138671875,0.049468994140625,0.0690765380859375
1760554952778445800,6.39044580078125,-1.0640411376953125,0.0928192138671875,0.079315185546875
1760554952788449500,6.400449462890625,-1.07232666015625,0.098388671875,0.08563232421875
1760554952798454500,6.41045458984375,-1.0398712158203125,0.0774993896484375,0.0786285400390625
1760554952808458500,6.42045849609375,-1.0159912109375,0.0701904296875,0.084716796875
1760554952818463500,6.43046337890625,-1.0067596435546875,0.0249176025390625,0.059844970703125
1760554952828467700,6.4404677734375,-1.0042266845703125,0.0024871826171875,0.039398193359375
1760554952838472700,6.45047265625,-1.003570556640625,0.0049591064453125,0.0464019775390625
1760554952848476700,6.4604765625,-1.004974365234375,0.0116119384765625,0.040283203125
1760554952858481700,6.470481689453125,-1.0035247802734375,0.0208892822265625,0.0396728515625
1760554952868485600,6.480485595703125,-1.0009002685546875,0.0203704833984375,0.0423736572265625
1760554952878490600,6.49049072265625,-0.9972381591796875,0.0052032470703125,0.021881103515625
1760554952888494800,6.500494873046875,-0.9923553466796875,-0.0032806396484375,0.00933837890625
1760554952898499800,6.510499755859375,-1.0000457763671875,0.018768310546875,0.0186004638671875
1760554952908503300,6.52050341796875,-1.009063720703125,0.0587921142578125,0.02044677734375
1760554952918508300,6.53050830078125,-1.0157928466796875,0.088531494140625,0.0225677490234375
1760554952928512300,6.54051220703125,-1.014984130859375,0.092437744140625,0.02398681640625
1760554952938517200,6.550517333984375,-1.00689697265625,0.067474365234375,0.01214599609375
1760554952948521500,6.560521484375,-1.001800537109375,0.0542755126953125,0.0190887451171875
1760554952958525400,6.570525390625,-1.0020294189453125,0.054931640625,0.023162841796875
1760554952968530400,6.580530517578125,-1.004791259765625,0.0691375732421875,0.017974853515625
1760554952978534100,6.5905341796875,-1.00738525390625,0.076873779296875,0.0157928466796875
1760554952988539100,6.6005390625,-1.0039215087890625,0.0647430419921875,0.0212860107421875
1760554952998543400,6.61054345703125,-1.0020294189453125,0.0570831298828125,0.0219573974609375
1760554953008548400,6.62054833984375,-0.999786376953125,0.04705810546875,0.0260772705078125
1760554953018552300,6.63055224609375,-0.9920654296875,0.0201263427734375,0.024169921875
1760554953028557300,6.640557373046875,-0.9891357421875,0.0071258544921875,0.02496337890625
1760554953038561300,6.650561279296875,-0.9910125732421875,0.013641357421875,0.0216522216796875
1760554953048566300,6.660566162109375,-0.991058349609375,0.0177154541015625,0.0205078125
1760554953058570500,6.670570556640625,-0.989471435546875,0.015228271484375,0.01983642578125
1760554953068575500,6.680575439453125,-0.98687744140625,0.0056915283203125,0.0127716064453125
1760554953078579500,6.690579345703125,-0.9875335693359375,0.0067901611328125,0.0163116455078125
1760554953088584400,6.70058447265625,-0.9910125732421875,0.029296875,0.0262603759765625
1760554953098588200,6.710588134765625,-0.99737548828125,0.056640625,0.028350830078125
1760554953108593200,6.72059326171875,-1.002716064453125,0.0782928466796875,0.039154052734375
1760554953118597400,6.730597412109375,-1.00311279296875,0.091094970703125,0.0452117919921875
1760554953128602400,6.740602294921875,-0.9975433349609375,0.069366455078125,0.04638671875
1760554953138606300,6.7506064453125,-0.99188232421875,0.05487060546875,0.0517120361328125
1760554953148611300,6.760611328125,-0.9916839599609375,0.04718017578125,0.0481719970703125
1760554953158615300,6.770615234375,-0.9916229248046875,0.04632568359375,0.0582275390625
1760554953168620300,6.780620361328125,-0.9857025146484375,0.035247802734375,0.0632476806640625
1760554953178624500,6.79062451171875,-0.9815521240234375,0.01873779296875,0.0576171875
1760554953188629500,6.80062939453125,-0.9781341552734375,0.005096435546875,0.0706329345703125
1760554953198633500,6.810633544921875,-0.975250244140625,0.000823974609375,0.065826416015625
1760554953208638500,6.820638427734375,-0.9761505126953125,0.0087432861328125,0.0592193603515625
1760554953218642200,6.83064208984375,-0.9797210693359375,0.043182373046875,0.04364013671875
1760554953228647200,6.840647216796875,-0.990509033203125,0.0988311767578125,0.0243377685546875
1760554953238651400,6.8506513671875,-0.994903564453125,0.13018798828125,0.0123291015625
1760554953248656400,6.860656494140625,-0.996124267578125,0.095794677734375,0.0083770751953125
1760554953258660400,6.870660400390625,-0.999847412109375,0.1263885498046875,0.0071258544921875
1760554953268665300,6.880665283203125,-0.9962921142578125,0.13623046875,-0.0012969970703125
1760554953278669300,6.89066943359375,-0.9853515625,0.1080169677734375,0.033905029296875
1760554953288674300,6.90067431640625,-0.9871063232421875,0.0957183837890625,0.0182647705078125
1760554953298678300,6.91067822265625,-0.96856689453125,0.068634033203125,0.0337677001953125
1760554953308683500,6.92068359375,-0.99688720703125,0.0757598876953125,0.029541015625
1760554953318687500,6.9306875,-0.9539642333984375,0.103485107421875,0.0190887451171875
1760554953328692500,6.9406923828125,-0.9811553955078125,0.09320068359375,0.021728515625
1760554953338696200,6.9506962890625,-0.96533203125,0.08770751953125,0.0097198486328125
1760554953348701200,6.960701171875,-0.962738037109375,0.0806427001953125,0.0059356689453125
1760554953358705400,6.970705322265625,-0.960357666015625,0.0980072021484375,-0.0000457763671875
1760554953368710400,6.98071044921875,-0.9697265625,0.1081390380859375,-0.0179901123046875
1760554953378714400,6.99071435546875,-0.955841064453125,0.1112213134765625,-0.0334625244140625
1760554953388719400,7.00071923828125,-0.9691009521484375,0.1031494140625,-0.018524169921875
1760554953398723300,7.010723388671875,-0.9521942138671875,0.1058349609375,-0.0293731689453125
1760554953408728300,7.020728271484375,-1.0173187255859375,0.0976104736328125,-0.0221405029296875
1760554953418732300,7.030732177734375,-1.0849456787109375,0.103851318359375,-0.005462646484375
1760554953428737300,7.0407373046875,-0.943939208984375,0.1403656005859375,-0.021392822265625
1760554953438741500,7.050741455078125,-0.9559783935546875,0.17132568359375,-0.01348876953125
1760554953448746500,7.06074658203125,-1.0130615234375,3.7120208740234375,0.4781036376953125
1760554953458750200,7.070750244140625,-0.9769744873046875,0.0216217041015625,-0.1262664794921875
1760554953468755200,7.080755126953125,-0.985870361328125,-0.3079833984375,-0.1685638427734375
1760554953478759200,7.09075927734375,-0.91827392578125,-0.0635833740234375,-0.157562255859375
1760554953488764200,7.10076416015625,-0.9814300537109375,-0.1232452392578125,-0.1798858642578125
1760554953498768400,7.110768310546875,-0.956695556640625,0.04595947265625,-0.1244354248046875
1760554953508773400,7.1207734375,-0.9774627685546875,0.11492919921875,-0.666046142578125
1760554953518777300,7.13077734375,-0.970733642578125,0.1074676513671875,0.1244354248046875
1760554953528782300,7.1407822265625,-0.968536376953125,0.107635498046875,0.0441131591796875
1760554953538786300,7.150786376953125,-0.9785003662109375,0.5065765380859375,-0.094757080078125
1760554953548791300,7.160791259765625,-1.0094757080078125,0.762847900390625,-0.0989227294921875
1760554953558795500,7.17079541015625,-0.950225830078125,-0.1778717041015625,0.0877227783203125
1760554953568800500,7.180800537109375,-0.968658447265625,0.106292724609375,-0.046142578125
1760554953578804200,7.19080419921875,-0.9819183349609375,0.311553955078125,-0.094329833984375
1760554953588809200,7.200809326171875,-0.97576904296875,0.4394683837890625,-0.096527099609375
1760554953598813200,7.210813232421875,-0.968780517578125,0.0030670166015625,-0.0031280517578125
1760554953608818200,7.220818115234375,-0.9672088623046875,0.4000396728515625,-0.1355743408203125
1760554953618822400,7.230822509765625,-0.9708251953125,0.1851806640625,-0.0636138916015625
1760554953628827400,7.240827392578125,-0.9711761474609375,0.2434539794921875,-0.06805419921875
1760554953638831400,7.250831298828125,-0.9720916748046875,0.2361602783203125,-0.0558929443359375
1760554953648835300,7.26083544921875,-0.97247314453125,0.23809814453125,-0.0504150390625
1760554953658840300,7.27084033203125,-0.970306396484375,0.2364501953125,-0.0484466552734375
1760554953668844300,7.28084423828125,-0.972747802734375,0.23895263671875,-0.0477752685546875
1760554953678849300,7.290849365234375,-0.97259521484375,0.235626220703125,-0.056396484375
1760554953688853200,7.300853271484375,-0.97314453125,0.2286834716796875,-0.0688323974609375
1760554953698858200,7.310858154296875,-0.983184814453125,0.257904052734375,-0.061767578125
1760554953708862200,7.3208623046875,-0.9837188720703125,0.271453857421875,-0.0548553466796875
1760554953718867200,7.3308671875,-0.9826507568359375,0.2657318115234375,-0.04425048828125
1760554953728871400,7.340871337890625,-0.9788360595703125,0.244598388671875,-0.03692626953125
1760554953738876400,7.35087646484375,-0.9747467041015625,0.224578857421875,-0.036041259765625
1760554953748880400,7.36088037109375,-0.97125244140625,0.21282958984375,-0.02728271484375
1760554953758885400,7.370885498046875,-0.97216796875,0.214996337890625,-0.022125244140625
1760554953768889300,7.380889404296875,-0.9787445068359375,0.2276458740234375,-0.019378662109375
1760554953778894300,7.390894287109375,-0.9857940673828125,0.2499847412109375,-0.015716552734375
1760554953788898300,7.400898193359375,-0.9864501953125,0.2489776611328125,-0.0160980224609375
1760554953798903300,7.4109033203125,-0.97894287109375,0.2216033935546875,-0.0053253173828125
1760554953808907300,7.4209072265625,-0.9727325439453125,0.2005767822265625,0.0018463134765625
1760554953818912300,7.430912353515625,-0.9645233154296875,0.169921875,0.0057220458984375
1760554953828916200,7.440916259765625,-0.9598541259765625,0.1504364013671875,0.0080718994140625
1760554953838921200,7.450921142578125,-0.9605865478515625,0.1458587646484375,0.00201416015625
1760554953848925400,7.460925537109375,-0.966094970703125,0.155914306640625,-0.01007080078125
1760554953858930400,7.470930419921875,-0.9720916748046875,0.1778717041015625,-0.019989013671875
1760554953868934400,7.480934326171875,-0.979827880859375,0.197906494140625,-0.02972412109375
1760554953878939400,7.490939453125,-0.977386474609375,0.1960296630859375,-0.0316925048828125
1760554953888943400,7.500943359375,-0.973358154296875,0.18072509765625,-0.0330047607421875
1760554953898948400,7.5109482421875,-0.9699859619140625,0.1721038818359375,-0.0388031005859375
1760554953908952800,7.520952880859375,-0.9735565185546875,0.1775970458984375,-0.0446929931640625
1760554953918957800,7.530957763671875,-0.980499267578125,0.1990814208984375,-0.047637939453125
1760554953928961800,7.5409619140625,-0.983489990234375,0.2153778076171875,-0.0446014404296875
1760554953938966800,7.550966796875,-0.981201171875,0.207611083984375,-0.0349578857421875
1760554953948970800,7.560970703125,-0.9781341552734375,0.19793701171875,-0.0285491943359375
1760554953958975700,7.570975830078125,-0.97430419921875,0.1880645751953125,-0.025665283203125
1760554953968979700,7.580979736328125,-0.9751129150390625,0.184967041015625,-0.0331878662109375
1760554953978984700,7.590984619140625,-0.978240966796875,0.1931610107421875,-0.037384033203125
1760554953988988700,7.60098876953125,-0.9799041748046875,0.2005615234375,-0.0388641357421875
1760554953998993700,7.61099365234375,-0.9773406982421875,0.1971435546875,-0.0417633056640625
1760554954008997600,7.62099755859375,-0.9779510498046875,0.1927032470703125,-0.041229248046875
1760554954019002600,7.631002685546875,-0.97747802734375,0.1922607421875,-0.042510986328125
1760554954029006600,7.641006591796875,-0.978118896484375,0.19708251953125,-0.0466766357421875
1760554954039011800,7.65101171875,-0.9822235107421875,0.2064666748046875,-0.0499420166015625
1760554954049015800,7.661015869140625,-0.984283447265625,0.2201995849609375,-0.0498046875
1760554954059020800,7.671020751953125,-0.98712158203125,0.228271484375,-0.04962158203125
1760554954069024800,7.681024658203125,-0.98956298828125,0.2388153076171875,-0.0501708984375
1760554954079029800,7.69102978515625,-0.991058349609375,0.2357177734375,-0.047698974609375
1760554954089033700,7.70103369140625,-0.989959716796875,0.2267303466796875,-0.04193115234375
1760554954099038700,7.711038818359375,-0.9884185791015625,0.2145843505859375,-0.0398406982421875
1760554954109042700,7.721042724609375,-0.9847564697265625,0.20599365234375,-0.036407470703125
1760554954119047700,7.731047607421875,-0.984466552734375,0.201629638671875,-0.029541015625
1760554954129051600,7.7410517578125,-0.981964111328125,0.189483642578125,-0.024810791015625
1760554954139056600,7.751056640625,-0.98162841796875,0.1850433349609375,-0.01947021484375
1760554954149060600,7.761060546875,-0.9832305908203125,0.1865997314453125,-0.0155181884765625
1760554954159065600,7.771065673828125,-0.98809814453125,0.189208984375,-0.01904296875
1760554954169069800,7.78106982421875,-0.9891510009765625,0.1907501220703125,-0.0217437744140625
1760554954179074800,7.79107470703125,-0.9879608154296875,0.1849822998046875,-0.0189971923828125
1760554954189078800,7.801078857421875,-0.98431396484375,0.1670684814453125,-0.0230712890625
1760554954199083800,7.811083740234375,-0.978790283203125,0.14794921875,-0.0224151611328125
1760554954209087500,7.82108740234375,-0.9787139892578125,0.1386871337890625,-0.023101806640625
1760554954219092500,7.831092529296875,-0.9813385009765625,0.1446990966796875,-0.024383544921875
1760554954229096700,7.8410966796875,-0.99078369140625,0.1725616455078125,-0.024658203125
1760554954239101700,7.851101806640625,-1.0056304931640625,0.2094268798828125,-0.0277252197265625
1760554954249105700,7.861105712890625,-1.0185699462890625,0.2379608154296875,-0.0309295654296875
1760554954259110700,7.871110595703125,-1.023162841796875,0.2452392578125,-0.0342254638671875
1760554954269114600,7.881114501953125,-1.0164031982421875,0.21978759765625,-0.0277252197265625
1760554954279119600,7.89111962890625,-1.0022125244140625,0.1739044189453125,-0.028472900390625
1760554954289123800,7.901123779296875,-0.9846343994140625,0.1152496337890625,-0.0311126708984375
1760554954299128800,7.91112890625,-0.9722137451171875,0.0803985595703125,-0.0184173583984375
1760554954309132800,7.9211328125,-0.9727783203125,0.068359375,-0.0180206298828125
1760554954319137800,7.9311376953125,-0.9844970703125,0.0838470458984375,-0.0238494873046875
1760554954329141500,7.9411416015625,-0.9946136474609375,0.1055755615234375,-0.0169219970703125
1760554954339146500,7.951146484375,-0.9932861328125,0.095611572265625,-0.0465240478515625
1760554954349150700,7.961150634765625,-0.9777984619140625,0.0517730712890625,-0.045806884765625
1760554954359155700,7.97115576171875,-0.969879150390625,0.02142333984375,-0.0261383056640625
1760554954369159700,7.98115966796875,-0.9657440185546875,0.0059356689453125,-0.0351409912109375
1760554954379164700,7.99116455078125,-0.97406005859375,0.0209808349609375,-0.0374298095703125
1760554954389166600,8.00116650390625,-0.988250732421875,0.0518646240234375,-0.0473785400390625
1760554954399171600,8.011171630859375,-1.0081787109375,0.09442138671875,-0.0579376220703125
1760554954409175600,8.021175537109375,-1.010894775390625,0.1068878173828125,-0.0665130615234375
1760554954419180500,8.0311806640625,-1.012542724609375,0.1034698486328125,-0.0533294677734375
1760554954429184800,8.041184814453125,-1.0106048583984375,0.0926971435546875,-0.0532989501953125
1760554954439189800,8.051189697265626,-1.001251220703125,0.0654449462890625,-0.05181884765625
1760554954449193700,8.06119384765625,-0.996551513671875,0.050262451171875,-0.034820556640625
1760554954459198700,8.07119873046875,-0.998291015625,0.040679931640625,-0.0365142822265625
1760554954469202700,8.08120263671875,-0.9940643310546875,0.0296173095703125,-0.021270751953125
1760554954479207700,8.091207763671875,-0.9920806884765625,0.0224151611328125,-0.02325439453125
1760554954489212000,8.1012119140625,-0.9889984130859375,0.008209228515625,-0.0201568603515625
1760554954499217000,8.111216796875,-0.9816741943359375,-0.0136260986328125,-0.008697509765625
1760554954509220600,8.121220703125,-0.9794769287109375,-0.02294921875,-0.011077880859375
1760554954519225600,8.1312255859375,-0.98486328125,-0.0169830322265625,-0.009735107421875
1760554954529229600,8.1412294921875,-0.9845428466796875,-0.016510009765625,-0.011016845703125
1760554954539234600,8.151234619140626,-0.986480712890625,-0.018707275390625,-0.015533447265625
1760554954549238800,8.16123876953125,-0.986907958984375,-0.0211029052734375,-0.0071868896484375
1760554954559243800,8.171243896484375,-0.9875946044921875,-0.019287109375,0.0011138916015625
1760554954569247700,8.181247802734376,-0.99017333984375,-0.0158843994140625,0.006256103515625
1760554954579252700,8.191252685546875,-0.989166259765625,-0.0161285400390625,0.0069732666015625
1760554954589256700,8.201256591796875,-0.9943389892578125,-0.011199951171875,0.0032501220703125
1760554954599261700,8.21126171875,-1.0028076171875,0.0054473876953125,-0.00738525390625
1760554954609266000,8.221265869140625,-1.01226806640625,0.0269622802734375,-0.00677490234375
1760554954619271000,8.23127099609375,-1.031219482421875,0.0603790283203125,-0.0097198486328125
1760554954629274600,8.241274658203125,-1.04736328125,0.0894775390625,-0.005126953125
1760554954639279600,8.251279541015625,-1.049591064453125,0.08551025390625,-0.0087127685546875
1760554954649283600,8.26128369140625,-1.022735595703125,0.0193023681640625,0.013763427734375
1760554954659288600,8.27128857421875,-0.9542694091796875,-0.113861083984375,0.037933349609375
1760554954669292800,8.281292724609376,-0.875213623046875,-0.179290771484375,-0.001739501953125
1760554954679297800,8.2912978515625,-0.9299774169921875,-0.1494598388671875,0.0258026123046875
1760554954689301800,8.3013017578125,-0.9781341552734375,-0.1078643798828125,0.05853271484375
1760554954699306800,8.311306640625,-0.9868621826171875,-0.076629638671875,0.0553436279296875
1760554954709310700,8.321310791015625,-0.9860382080078125,-0.0507659912109375,0.0399932861328125
1760554954719315700,8.331315673828126,-0.999786376953125,-0.0166168212890625,0.0330352783203125
1760554954729320000,8.34131982421875,-1.000518798828125,-0.0167999267578125,0.03472900390625
1760554954739325000,8.351324951171875,-0.999237060546875,-0.0164031982421875,0.0410308837890625
1760554954749328600,8.36132861328125,-1.0101470947265625,0.001495361328125,0.03759765625
1760554954759333600,8.371333740234375,-1.017547607421875,0.013427734375,0.034423828125
1760554954769338600,8.381338623046876,-1.01214599609375,0.006378173828125,0.0321197509765625
1760554954779343600,8.391343505859375,-1.0043792724609375,-0.0106658935546875,0.0273895263671875
1760554954789347600,8.40134765625,-0.9978179931640625,-0.022247314453125,0.030120849609375
1760554954799352600,8.4113525390625,-0.9957275390625,-0.02435302734375,0.0269012451171875
1760554954809356800,8.421356689453125,-0.9998779296875,-0.018280029296875,0.0281829833984375
1760554954819361800,8.43136181640625,-1.0052642822265625,-0.0132904052734375,0.026458740234375
1760554954829365800,8.44136572265625,-0.9999847412109375,-0.0251922607421875,0.0238800048828125
1760554954839370800,8.451370849609376,-0.994384765625,-0.033843994140625,0.026641845703125
1760554954849374700,8.461374755859374,-0.9879302978515625,-0.04449462890625,0.0272369384765625
1760554954859379700,8.471379638671875,-0.9803924560546875,-0.054412841796875,0.03704833984375
1760554954869384000,8.481384033203126,-0.9826202392578125,-0.0489501953125,0.035247802734375
1760554954879389000,8.491388916015625,-0.99053955078125,-0.035675048828125,0.032989501953125
1760554954889392600,8.501392578125,-0.9976654052734375,-0.0257415771484375,0.0337066650390625
1760554954899397600,8.511397705078124,-1.0030975341796875,-0.0136566162109375,0.034942626953125
1760554954909401900,8.52140185546875,-1.0068206787109375,-0.003143310546875,0.03692626953125
1760554954919406800,8.53140673828125,-1.0116729736328125,0.0047454833984375,0.0155792236328125
1760554954929410800,8.541410888671875,-1.01824951171875,0.0118560791015625,0.00738525390625
1760554954939415800,8.551415771484375,-1.0185089111328125,0.008331298828125,0.00775146484375
1760554954949420000,8.561419921875,-1.0088043212890625,-0.008758544921875,0.0065460205078125
1760554954959425000,8.571425048828125,-0.9996490478515625,-0.02410888671875,0.0111083984375
1760554954969429000,8.581428955078126,-0.9932403564453125,-0.040130615234375,0.0189666748046875
1760554954979434000,8.59143408203125,-0.9880523681640625,-0.0501251220703125,0.02166748046875
1760554954989438000,8.60143798828125,-0.98956298828125,-0.045196533203125,0.0237884521484375
1760554954999443000,8.61144287109375,-0.990936279296875,-0.0399017333984375,0.0246429443359375
1760554955009447000,8.621447021484375,-0.988006591796875,-0.047119140625,0.017303466796875
1760554955019452000,8.631451904296876,-0.9852447509765625,-0.0502166748046875,0.0048980712890625
1760554955029456000,8.641455810546875,-0.9951171875,-0.0380859375,-0.003173828125
1760554955039460900,8.6514609375,-1.0014190673828125,-0.027801513671875,-0.00189208984375
1760554955049464800,8.66146484375,-1.003204345703125,-0.0233612060546875,-0.001007080078125
1760554955059469800,8.6714697265625,-1.00482177734375,-0.019134521484375,0.0060272216796875
1760554955069474000,8.68147412109375,-1.0045623779296875,-0.019500732421875,0.0118255615234375
1760554955079479000,8.69147900390625,-1.000579833984375,-0.022705078125,0.01849365234375
1760554955089483000,8.70148291015625,-1.0011138916015625,-0.024078369140625,0.0242156982421875
1760554955099488000,8.711488037109374,-1.00714111328125,-0.01220703125,0.025238037109375
1760554955109492000,8.721491943359375,-1.01373291015625,-0.003662109375,0.0213623046875
1760554955119497000,8.7314970703125,-1.01666259765625,-0.0008392333984375,0.0206146240234375
1760554955129501000,8.7415009765625,-1.0165863037109375,-0.002655029296875,0.0286865234375
1760554955139505000,8.7515048828125,-1.0106048583984375,-0.0159149169921875,0.0265655517578125
1760554955149510000,8.761510009765624,-1.0005645751953125,-0.032012939453125,0.0302581787109375
1760554955159513900,8.771513916015625,-0.9930267333984375,-0.0453033447265625,0.0317535400390625
1760554955169518800,8.781518798828126,-0.986419677734375,-0.0589141845703125,0.029205322265625
1760554955179523000,8.791523193359374,-0.980194091796875,-0.067626953125,0.0347747802734375
1760554955189528000,8.801528076171875,-0.97607421875,-0.07318115234375,0.0391845703125
1760554955199532000,8.811531982421876,-0.970550537109375,-0.082061767578125,0.041748046875
1760554955209537000,8.821537109375,-0.970947265625,-0.08349609375,0.0432891845703125
1760554955219541000,8.831541015625,-0.9765625,-0.075439453125,0.0403900146484375
1760554955229546000,8.8415458984375,-0.9795989990234375,-0.072021484375,0.0360565185546875
1760554955239550000,8.851550048828125,-0.9851531982421875,-0.0633544921875,0.0334625244140625
1760554955249555000,8.861554931640624,-0.9925994873046875,-0.0535125732421875,0.029510498046875
1760554955259559000,8.871558837890625,-0.997283935546875,-0.0444793701171875,0.0254669189453125
1760554955269564000,8.88156396484375,-1.0102386474609375,-0.021636962890625,0.0217437744140625
1760554955279568000,8.89156787109375,-1.02301025390625,-0.001678466796875,0.01556396484375
1760554955289572900,8.90157275390625,-1.0244903564453125,0.0014801025390625,0.010345458984375
1760554955299577000,8.9115771484375,-1.020904541015625,-0.003387451171875,0.00640869140625
1760554955309582000,8.92158203125,-1.017303466796875,-0.0124969482421875,0.0052642822265625
1760554955319586000,8.9315859375,-1.0064849853515625,-0.029266357421875,0.004852294921875
1760554955329591000,8.941591064453124,-0.9959564208984375,-0.0466461181640625,0.0065765380859375
1760554955339594800,8.9515947265625,-0.9876861572265625,-0.059539794921875,0.0059967041015625
1760554955349600000,8.96160009765625,-0.98333740234375,-0.068634033203125,0.0054168701171875
1760554955359604000,8.97160400390625,-0.981414794921875,-0.0726776123046875,0.001007080078125
1760554955369609000,8.98160888671875,-0.9778594970703125,-0.078277587890625,0.00408935546875
1760554955379613000,8.991613037109374,-0.971221923828125,-0.0890350341796875,0.00738525390625
1760554955389618000,9.001617919921875,-0.9678802490234375,-0.092437744140625,0.0107879638671875
1760554955399622000,9.011621826171876,-0.9713592529296875,-0.0831146240234375,0.0158843994140625
1760554955409627000,9.021626953125,-0.9828033447265625,-0.065277099609375,0.0185546875
1760554955419631000,9.031631103515625,-0.9993438720703125,-0.038726806640625,0.022613525390625
1760554955429636000,9.041635986328124,-1.012908935546875,-0.0145263671875,0.0134124755859375
1760554955439640000,9.05164013671875,-1.0227203369140625,0.000152587890625,0.00726318359375
1760554955449645000,9.06164501953125,-1.0287628173828125,0.012054443359375,0.0054779052734375
1760554955459648800,9.071648681640625,-1.029449462890625,0.0180511474609375,0.0051116943359375
1760554955469653800,9.08165380859375,-1.0291748046875,0.0151214599609375,0.009613037109375
1760554955479658000,9.091657958984374,-1.01531982421875,-0.00555419921875,0.0208892822265625
1760554955489663000,9.1016630859375,-1.002593994140625,-0.0235137939453125,0.03070068359375
1760554955499667000,9.1116669921875,-0.9990081787109375,-0.0305023193359375,0.0374908447265625
1760554955509672000,9.121671875,-0.99603271484375,-0.0337677001953125,0.0431976318359375
1760554955519676000,9.131676025390625,-0.9934844970703125,-0.0425567626953125,0.0437469482421875
1760554955529681000,9.141680908203124,-0.9843292236328125,-0.056671142578125,0.0445709228515625
1760554955539685000,9.15168505859375,-0.978759765625,-0.0646820068359375,0.04522705078125
1760554955549690000,9.161690185546876,-0.9797210693359375,-0.0662994384765625,0.038482666015625
1760554955559694000,9.171694091796875,-0.986968994140625,-0.054443359375,0.037017822265625
1760554955569699000,9.181698974609375,-0.99847412109375,-0.0382843017578125,0.0343475341796875
1760554955579702800,9.191702880859374,-1.0049896240234375,-0.0275726318359375,0.0362091064453125
1760554955589707800,9.201707763671875,-1.0045013427734375,-0.0265960693359375,0.03778076171875
1760554955599712000,9.2117119140625,-1.002044677734375,-0.02618408203125,0.0352325439453125
1760554955609717000,9.221717041015625,-1.00543212890625,-0.0242919921875,0.033172607421875
1760554955619721000,9.231720947265625,-1.0074310302734375,-0.0213470458984375,0.0305633544921875
1760554955629726000,9.241725830078124,-1.0078887939453125,-0.0224456787109375,0.029541015625
1760554955639730000,9.25172998046875,-1.009918212890625,-0.018829345703125,0.0228424072265625
1760554955649735000,9.26173486328125,-1.0128021240234375,-0.017364501953125,0.027862548828125
1760554955659739100,9.2717392578125,-1.0085296630859375,-0.0260772705078125,0.0235748291015625
1760554955669744000,9.281744140625,-0.998992919921875,-0.0369110107421875,0.0250244140625
1760554955679748000,9.291748046875,-0.9982757568359375,-0.0426483154296875,0.0263824462890625
1760554955689753000,9.301753173828125,-1.0008392333984375,-0.0425567626953125,0.027923583984375
1760554955699756800,9.3117568359375,-1.001495361328125,-0.04345703125,0.0263671875
1760554955709761800,9.32176171875,-0.9998626708984375,-0.04632568359375,0.0139007568359375
1760554955719766000,9.33176611328125,-1.0016326904296875,-0.0431060791015625,-0.0038604736328125
1760554955729771000,9.34177099609375,-1.003753662109375,-0.0427703857421875,-0.0214691162109375
1760554955739775000,9.35177490234375,-1.0079803466796875,-0.03814697265625,-0.03179931640625
1760554955749780000,9.361780029296876,-1.0146026611328125,-0.031890869140625,-0.03509521484375
1760554955759784000,9.371783935546874,-1.0125885009765625,-0.035247802734375,-0.032562255859375
1760554955769789000,9.381788818359375,-1.0096282958984375,-0.04315185546875,-0.0331573486328125
1760554955779793200,9.391793212890626,-0.9992828369140625,-0.0602874755859375,-0.0328369140625
1760554955789798100,9.401798095703125,-0.9841461181640625,-0.0836639404296875,-0.0295257568359375
1760554955799802000,9.411802001953125,-0.9765777587890625,-0.097412109375,-0.0270233154296875
1760554955809807000,9.42180712890625,-0.9739532470703125,-0.10406494140625,-0.0306243896484375
1760554955819810800,9.431810791015625,-0.975616455078125,-0.099853515625,-0.02203369140625
1760554955829815800,9.44181591796875,-0.981964111328125,-0.0921173095703125,-0.01141357421875
1760554955839820000,9.451820068359375,-0.983001708984375,-0.091156005859375,-0.0054931640625
1760554955849825000,9.461824951171875,-0.98321533203125,-0.0919647216796875,0.0049896240234375
1760554955859829000,9.4718291015625,-0.9832305908203125,-0.091583251953125,0.0103759765625
1760554955869834000,9.481833984375,-0.9837799072265625,-0.08746337890625,0.014312744140625
1760554955879838000,9.491837890625,-0.99407958984375,-0.075347900390625,0.0167083740234375
1760554955889843000,9.501843017578125,-1.00006103515625,-0.0671539306640625,0.0155487060546875
1760554955899847000,9.511846923828125,-0.998931884765625,-0.06671142578125,0.0143890380859375
1760554955909851600,9.5218515625,-1.0064544677734375,-0.0604400634765625,0.0211944580078125
1760554955919855600,9.531855712890625,-1.011749267578125,-0.050811767578125,0.0323486328125
1760554955929860600,9.541860595703126,-1.0168914794921875,-0.0430755615234375,0.03582763671875
1760554955939864600,9.551864501953125,-1.0189666748046875,-0.0403289794921875,0.0410308837890625
1760554955949869600,9.56186962890625,-1.0139923095703125,-0.0491180419921875,0.0486602783203125
1760554955959873800,9.571873779296874,-1.007049560546875,-0.0602569580078125,0.05157470703125
1760554955969878800,9.581878662109375,-0.9932098388671875,-0.080963134765625,0.0411376953125
1760554955979882500,9.591882568359376,-0.9928131103515625,-0.08349609375,0.0397186279296875
1760554955989887500,9.601887451171875,-0.99993896484375,-0.0766448974609375,0.0341644287109375
1760554955999891500,9.611891357421875,-0.999359130859375,-0.0789337158203125,0.0414886474609375
1760554956009896400,9.621896484375,-0.9962921142578125,-0.0847930908203125,0.0495147705078125
1760554956019900700,9.631900634765625,-0.9963531494140625,-0.086212158203125,0.0456085205078125
1760554956029905700,9.64190576171875,-0.996246337890625,-0.0846099853515625,0.056182861328125
1760554956039909600,9.65190966796875,-0.996917724609375,-0.0856170654296875,0.0638885498046875
1760554956049913600,9.66191357421875,-0.9896697998046875,-0.0966949462890625,0.0678253173828125
1760554956059918600,9.671918701171874,-0.9871673583984375,-0.1039886474609375,0.0615386962890625
1760554956069922600,9.681922607421875,-0.9924774169921875,-0.099273681640625,0.0537261962890625
1760554956079927800,9.691927734375,-0.994049072265625,-0.1000823974609375,0.0533447265625
1760554956089931500,9.701931640625,-0.998321533203125,-0.0957489013671875,0.052703857421875
1760554956099936500,9.7119365234375,-0.9987030029296875,-0.0948333740234375,0.0542755126953125
1760554956109940500,9.7219404296875,-0.9996185302734375,-0.0913543701171875,0.0601654052734375
1760554956119945500,9.731945556640625,-0.99713134765625,-0.099609375,0.0623779296875
1760554956129949700,9.74194970703125,-0.9863128662109375,-0.1187591552734375,0.057464599609375
1760554956139954700,9.75195458984375,-0.97515869140625,-0.13671875,0.0599517822265625
1760554956149958700,9.761958740234375,-0.9661102294921875,-0.15472412109375,0.0305938720703125
1760554956159963600,9.771963623046876,-0.9681854248046875,-0.1549835205078125,0.0246124267578125
1760554956169967600,9.781967529296875,-0.97467041015625,-0.14703369140625,0.0312652587890625
1760554956179972600,9.79197265625,-0.977142333984375,-0.14520263671875,0.0182952880859375
1760554956189976600,9.8019765625,-0.9782562255859375,-0.1308441162109375,0.0165557861328125
1760554956199981600,9.811981689453125,-0.9816741943359375,-0.1108856201171875,0.0135345458984375
1760554956209985500,9.821985595703126,-0.988006591796875,-0.12353515625,0.0055084228515625
1760554956219990500,9.831990478515625,-0.9949493408203125,-0.1458587646484375,0.0090789794921875
1760554956229994500,9.841994384765625,-0.9892730712890625,-0.1593170166015625,0.017303466796875
1760554956239999500,9.85199951171875,-0.9832916259765625,-0.143463134765625,0.016632080078125
1760554956250003500,9.86200341796875,-0.980010986328125,-0.14569091796875,0.0012969970703125
1760554956260008400,9.872008544921876,-0.9814910888671875,-0.144439697265625,0.00653076171875
1760554956270012700,9.8820126953125,-0.98968505859375,-0.133697509765625,0.0177764892578125
1760554956280017700,9.892017578125,-1.0010986328125,-0.118408203125,0.0120697021484375
1760554956290021600,9.902021728515624,-1.0019073486328125,-0.1190032958984375,0.0066986083984375
1760554956300026600,9.912026611328125,-0.9967498779296875,-0.126129150390625,0.006500244140625
1760554956310030600,9.922030517578126,-0.991912841796875,-0.1322784423828125,0.00714111328125
1760554956320035600,9.93203564453125,-0.990234375,-0.1361236572265625,0.00872802734375
1760554956330039600,9.94203955078125,-0.9842987060546875,-0.14410400390625,0.01239013671875
1760554956340044500,9.95204443359375,-0.9757080078125,-0.1549072265625,0.0247955322265625
1760554956350048500,9.962048583984375,-0.9759674072265625,-0.15289306640625,0.0305633544921875
1760554956360053500,9.972053466796876,-0.977203369140625,-0.1529541015625,0.0325927734375
1760554956370057500,9.982057373046874,-0.9681396484375,-0.1616973876953125,0.0303192138671875
1760554956380062500,9.9920625,-0.9629974365234375,-0.1702728271484375,0.0279388427734375
1760554956390066700,10.002066650390624,-0.9602508544921875,-0.1739654541015625,0.0328369140625
1760554956400071700,10.01207177734375,-0.957916259765625,-0.1751861572265625,0.03662109375
1760554956410075600,10.02207568359375,-0.965728759765625,-0.16351318359375,0.0357818603515625
1760554956420080600,10.03208056640625,-0.97161865234375,-0.1552276611328125,0.0411224365234375
1760554956430084400,10.04208447265625,-0.9649810791015625,-0.16131591796875,0.06048583984375
1760554956440089300,10.05208935546875,-0.9585723876953125,-0.1661376953125,0.0721893310546875
1760554956450093600,10.062093505859375,-0.956756591796875,-0.1649932861328125,0.076171875
1760554956460098600,10.0720986328125,-0.9670257568359375,-0.1455841064453125,0.0894012451171875
1760554956470102500,10.0821025390625,-0.980621337890625,-0.1204376220703125,0.085540771484375
1760554956480107500,10.092107421875,-0.981292724609375,-0.1168975830078125,0.0641021728515625
1760554956490111500,10.102111572265626,-0.9850006103515625,-0.1125946044921875,0.0540008544921875
1760554956500116500,10.112116455078125,-0.9998931884765625,-0.086883544921875,0.054046630859375
1760554956510120700,10.12212060546875,-1.0102691650390625,-0.0692901611328125,0.0489654541015625
1760554956520125700,10.132125732421875,-1.006317138671875,-0.072174072265625,0.0453338623046875
1760554956530129700,10.142129638671875,-0.997283935546875,-0.0817718505859375,0.0423126220703125
1760554956540134700,10.152134765625,-0.9927825927734375,-0.08795166015625,0.030975341796875
1760554956550138400,10.162138427734375,-0.9840850830078125,-0.0971527099609375,0.0281524658203125
1760554956560143400,10.172143310546875,-0.9798431396484375,-0.103179931640625,0.0048370361328125
1760554956570147600,10.182147705078124,-0.98046875,-0.09765625,0.0116424560546875
1760554956580152600,10.192152587890625,-0.9791412353515625,-0.0938720703125,0.021759033203125
1760554956590156500,10.202156494140626,-0.9791107177734375,-0.08929443359375,0.025909423828125
1760554956600161500,10.21216162109375,-0.9718780517578125,-0.0940093994140625,0.042236328125
1760554956610165500,10.22216552734375,-0.9661865234375,-0.098175048828125,0.039764404296875
1760554956620170500,10.23217041015625,-0.9733428955078125,-0.083526611328125,0.0291748046875
1760554956630174700,10.2421748046875,-1.002655029296875,-0.0437164306640625,0.017913818359375
1760554956640179700,10.2521796875,-1.0657958984375,0.0525054931640625,0.0153045654296875
1760554956650183700,10.26218359375,-1.0931854248046875,0.1069793701171875,-0.004119873046875
1760554956660188700,10.272188720703125,-1.0394744873046875,0.04229736328125,-0.004913330078125
1760554956670192400,10.2821923828125,-1.006805419921875,-0.0012054443359375,0.0069122314453125
1760554956680197400,10.292197265625,-1.0155792236328125,0.016815185546875,-0.0000762939453125
1760554956690201600,10.30220166015625,-1.0240936279296875,0.037811279296875,0.00762939453125
1760554956700206600,10.31220654296875,-1.01629638671875,0.0269775390625,0.0173797607421875
1760554956710210600,10.32221044921875,-1.002044677734375,0.003875732421875,0.029541015625
1760554956720215600,10.332215576171874,-0.9923248291015625,-0.0157928466796875,0.0370941162109375
1760554956730219500,10.342219482421875,-0.9884185791015625,-0.0260467529296875,0.0271453857421875
1760554956740224500,10.352224609375,-0.985992431640625,-0.029052734375,0.0326385498046875
1760554956750228700,10.362228759765625,-0.985382080078125,-0.0272674560546875,0.0322723388671875
1760554956760233700,10.372233642578125,-0.9927978515625,-0.0134429931640625,0.00732421875
1760554956770237700,10.38223779296875,-1.0056610107421875,0.0180511474609375,-0.0063018798828125
1760554956780242700,10.39224267578125,-1.0162506103515625,0.043914794921875,-0.0068817138671875
1760554956790246400,10.402246337890626,-1.0228424072265625,0.0605316162109375,-0.011322021484375
1760554956800251400,10.41225146484375,-1.0291900634765625,0.0793914794921875,-0.0032501220703125
1760554956810255600,10.422255615234375,-1.037139892578125,0.097869873046875,0.0082550048828125
1760554956820260600,10.432260498046874,-1.037750244140625,0.1049346923828125,0.00732421875
1760554956830264600,10.4422646484375,-1.042083740234375,0.1104278564453125,0.0048065185546875
1760554956840269600,10.45226953125,-1.04534912109375,0.113037109375,-0.00628662109375
1760554956850273500,10.4622734375,-1.0451812744140625,0.1078948974609375,-0.0051422119140625
1760554956860278500,10.472278564453125,-1.039031982421875,0.0863037109375,0.0081024169921875
1760554956870282800,10.48228271484375,-1.028106689453125,0.0569915771484375,0.00408935546875
1760554956880287700,10.492287841796875,-1.0129547119140625,0.0027923583984375,0.0045166015625
1760554956890291700,10.502291748046876,-0.9723358154296875,-0.09326171875,-0.0152587890625
1760554956900296700,10.512296630859375,-0.9176483154296875,-0.1864776611328125,-0.0195159912109375
1760554956910304000,10.522303955078126,-0.9062347412109375,-0.1920166015625,-0.002197265625
1760554956920309000,10.53230908203125,-0.939208984375,-0.13018798828125,-0.011749267578125
1760554956930313000,10.54231298828125,-0.964385986328125,-0.089569091796875,0.0029144287109375
1760554956940318000,10.55231787109375,-0.971282958984375,-0.07452392578125,0.0112762451171875
1760554956950322000,10.562322021484375,-0.9873504638671875,-0.046875,0.00823974609375
1760554956960327000,10.572326904296874,-1.0062408447265625,-0.014617919921875,0.00946044921875
1760554956970331000,10.582330810546875,-1.007904052734375,-0.0070037841796875,0.000885009765625
1760554956980335900,10.5923359375,-1.0113677978515625,-0.0009307861328125,-0.0023651123046875
1760554956990340000,10.602340087890624,-1.0234527587890625,0.021331787109375,-0.008758544921875
1760554957000345000,10.612344970703125,-1.025421142578125,0.026092529296875,-0.01129150390625
1760554957010349000,10.62234912109375,-1.0131988525390625,0.0021820068359375,-0.012847900390625
1760554957020354000,10.63235400390625,-0.9981231689453125,-0.02581787109375,-0.0058746337890625
1760554957030358000,10.64235791015625,-0.98779296875,-0.0455474853515625,-0.0079498291015625
1760554957040363000,10.652363037109374,-0.9801025390625,-0.059417724609375,-0.0067138671875
1760554957050367000,10.662366943359375,-0.9712677001953125,-0.0699615478515625,-0.002197265625
1760554957060371000,10.672370849609376,-0.979278564453125,-0.0581512451171875,-0.0060272216796875
1760554957070376000,10.6823759765625,-0.98956298828125,-0.041748046875,-0.0064544677734375
1760554957080381000,10.692380859375,-0.9984588623046875,-0.0274505615234375,-0.00634765625
1760554957090385000,10.702385009765624,-1.00067138671875,-0.022247314453125,-0.004058837890625
1760554957100389000,10.71238916015625,-0.9980010986328125,-0.025848388671875,0.0038604736328125
1760554957110394000,10.72239404296875,-0.994781494140625,-0.0335540771484375,0.0112457275390625
1760554957120398000,10.732398193359375,-0.9900360107421875,-0.0397491455078125,0.01690673828125
1760554957130403000,10.742403076171875,-0.9885101318359375,-0.0402679443359375,0.011932373046875
1760554957140406800,10.75240673828125,-0.990020751953125,-0.0381622314453125,0.005950927734375
1760554957150411800,10.762411865234375,-0.9921417236328125,-0.0317535400390625,-0.0003509521484375
1760554957160416000,10.772416015625,-0.9970550537109375,-0.01873779296875,0.003875732421875
1760554957170421000,10.7824208984375,-1.0028533935546875,-0.0091552734375,0.010162353515625
1760554957180425000,10.792425048828125,-1.0047760009765625,-0.0038604736328125,0.009185791015625
1760554957190430000,10.802429931640624,-1.006866455078125,0.0054473876953125,0.0126190185546875
1760554957200434000,10.812433837890625,-1.006011962890625,0.0059661865234375,0.0138702392578125
1760554957210439000,10.82243896484375,-1.00543212890625,0.00213623046875,0.010162353515625
1760554957220443100,10.832443115234375,-1.003692626953125,0.0001678466796875,0.0124664306640625
1760554957230448000,10.8424482421875,-1.0028839111328125,-0.0025787353515625,0.0153961181640625
1760554957240452000,10.8524521484375,-0.994415283203125,-0.016632080078125,0.0188446044921875
1760554957250457000,10.86245703125,-0.9900360107421875,-0.027069091796875,0.0178680419921875
1760554957260460800,10.872460693359375,-0.993408203125,-0.0202178955078125,0.0195159912109375
1760554957270465800,10.8824658203125,-0.99908447265625,-0.007843017578125,0.0098419189453125
1760554957280470000,10.892469970703125,-1.0037384033203125,0.0028228759765625,0.002838134765625
1760554957290475000,10.90247509765625,-1.0084075927734375,0.0155181884765625,0.001739501953125
1760554957300479000,10.91247900390625,-1.012420654296875,0.0240936279296875,-0.002105712890625
1760554957310484000,10.92248388671875,-1.01446533203125,0.028076171875,-0.001434326171875
1760554957320488000,10.932488037109374,-1.0137786865234375,0.0293731689453125,-0.0067596435546875
1760554957330493000,10.942492919921875,-1.0153961181640625,0.0305328369140625,-0.0007476806640625
1760554957340497000,10.952496826171876,-1.0160064697265625,0.0328369140625,0.0035400390625
1760554957350502000,10.962501953125,-1.0162506103515625,0.0315093994140625,0.0060882568359375
1760554957360506000,10.972506103515625,-1.0155029296875,0.023162841796875,0.0052032470703125
1760554957370511000,10.982510986328125,-1.0067138671875,0.0048065185546875,0.0091552734375
1760554957380514800,10.992514892578125,-0.9960784912109375,-0.0191650390625,-0.0009002685546875
1760554957390519800,11.002519775390626,-0.9849853515625,-0.0403289794921875,-0.000152587890625
1760554957400523800,11.012523681640625,-0.9798583984375,-0.0517120361328125,-0.004547119140625
1760554957410529000,11.022529052734376,-0.9799041748046875,-0.04998779296875,-0.0126190185546875
1760554957420533000,11.032532958984374,-0.9847259521484375,-0.041961669921875,-0.0101318359375
1760554957430538000,11.0425380859375,-0.9908447265625,-0.029876708984375,-0.0120697021484375
1760554957440542000,11.0525419921875,-0.9981689453125,-0.0170135498046875,-0.00921630859375
1760554957450547000,11.062546875,-1.0019989013671875,-0.011993408203125,-0.01153564453125
1760554957460551000,11.072551025390625,-1.0028228759765625,-0.0093994140625,-0.0139923095703125
1760554957470556000,11.082555908203124,-1.0025177001953125,-0.0080718994140625,-0.0134124755859375
1760554957480560000,11.09256005859375,-1.000762939453125,-0.011505126953125,-0.0113677978515625
1760554957490565000,11.102565185546876,-0.99725341796875,-0.01861572265625,-0.0108489990234375
1760554957500568800,11.11256884765625,-0.99468994140625,-0.0221405029296875,-0.0142822265625
1760554957510573800,11.12257373046875,-0.9975128173828125,-0.0205078125,-0.0200958251953125
1760554957520577800,11.132577880859374,-0.9992218017578125,-0.016143798828125,-0.0206451416015625
1760554957530582800,11.142582763671875,-0.99993896484375,-0.01373291015625,-0.0227203369140625
1760554957540587000,11.1525869140625,-1.0012664794921875,-0.015625,-0.02398681640625
1760554957550592000,11.162592041015625,-0.9958648681640625,-0.0234222412109375,-0.02178955078125
1760554957560596000,11.172595947265625,-0.9899444580078125,-0.031707763671875,-0.01715087890625
1760554957570601000,11.18260107421875,-0.9881439208984375,-0.0360260009765625,-0.0089111328125
1760554957580605000,11.19260498046875,-0.9879302978515625,-0.038787841796875,-0.002349853515625
1760554957590610000,11.20260986328125,-0.9903411865234375,-0.033477783203125,0.002593994140625
1760554957600614100,11.2126142578125,-0.9957427978515625,-0.0240020751953125,0.00433349609375
1760554957610619100,11.222619140625,-0.998931884765625,-0.0205078125,0.007415771484375
1760554957620622800,11.232622802734374,-0.9990386962890625,-0.0173187255859375,0.0064697265625
1760554957630627800,11.2426279296875,-0.9969635009765625,-0.0196075439453125,0.0045928955078125
1760554957640631800,11.2526318359375,-0.995880126953125,-0.0186004638671875,-0.001251220703125
1760554957650636800,11.26263671875,-1.000946044921875,-0.0139007568359375,-0.005279541015625
1760554957660641000,11.27264111328125,-1.0049591064453125,-0.005279541015625,-0.00567626953125
1760554957670646000,11.28264599609375,-1.0076904296875,0.0019989013671875,-0.001953125
1760554957680650000,11.29264990234375,-1.0069732666015625,0.0045013427734375,0.001129150390625
1760554957690655000,11.302655029296876,-1.0047149658203125,0.000030517578125,0.0035552978515625
1760554957700659000,11.312658935546875,-1.0013275146484375,-0.0113525390625,0.0054931640625
1760554957710664000,11.322663818359375,-0.9973602294921875,-0.01922607421875,0.007598876953125
1760554957720668200,11.332668212890624,-0.996612548828125,-0.022125244140625,0.008880615234375
1760554957730673200,11.342673095703125,-0.99493408203125,-0.021820068359375,0.006072998046875
1760554957740676900,11.3526767578125,-0.996124267578125,-0.01690673828125,0.0050201416015625
1760554957750681900,11.362681884765625,-1.00067138671875,-0.01043701171875,0.0007476806640625
1760554957760685800,11.372685791015625,-1.00335693359375,-0.00714111328125,-0.0023040771484375
1760554957770690800,11.38269091796875,-1.0016937255859375,-0.0107421875,-0.0058441162109375
1760554957780695000,11.392695068359375,-1.0005340576171875,-0.012786865234375,-0.0059967041015625
1760554957790700000,11.402699951171876,-0.9995880126953125,-0.011993408203125,-0.007720947265625
1760554957800704000,11.4127041015625,-1.0025177001953125,-0.0105438232421875,-0.0038909912109375
1760554957810709000,11.422708984375,-1.00390625,-0.0085906982421875,-0.0045623779296875
1760554957820713000,11.432712890625,-1.003173828125,-0.0084075927734375,-0.0026092529296875
1760554957830718000,11.442718017578125,-1.0024871826171875,-0.013275146484375,0.0023345947265625
1760554957840722000,11.452721923828125,-0.999267578125,-0.0209197998046875,0.00164794921875
1760554957850727000,11.462726806640624,-0.9966888427734375,-0.0221099853515625,-0.0003814697265625
1760554957860731000,11.47273095703125,-0.998504638671875,-0.0186614990234375,0.003692626953125
1760554957870736000,11.48273583984375,-1.0009765625,-0.0151824951171875,0.007354736328125
1760554957880739800,11.49273974609375,-1.0023345947265625,-0.0152435302734375,0.0060882568359375
1760554957890744800,11.502744873046876,-1.0024566650390625,-0.0140380859375,0.00579833984375
1760554957900749000,11.5127490234375,-1.0031280517578125,-0.015625,0.0052337646484375
1760554957910751000,11.5227509765625,-1.0020294189453125,-0.0177459716796875,0.0070953369140625
1760554957920755000,11.5327548828125,-0.9981536865234375,-0.0267791748046875,0.0059051513671875
1760554957930760000,11.542760009765624,-0.9892578125,-0.0391998291015625,0.0104522705078125
1760554957940764000,11.552763916015625,-0.99200439453125,-0.03912353515625,0.009490966796875
1760554957950769000,11.562768798828126,-0.9944305419921875,-0.033355712890625,0.0089874267578125
1760554957960772900,11.57277294921875,-0.9940948486328125,-0.034088134765625,0.006317138671875
1760554957970778000,11.582778076171875,-0.9942474365234375,-0.03533935546875,0.006103515625
1760554957980781800,11.59278173828125,-0.9962921142578125,-0.0305023193359375,0.0085906982421875
1760554957990786800,11.602786865234375,-1.000823974609375,-0.0279693603515625,0.0040740966796875
1760554958000790800,11.612790771484375,-0.9984283447265625,-0.0278167724609375,0.0050811767578125
1760554958010795800,11.622795654296874,-0.9954833984375,-0.031158447265625,0.00360107421875
1760554958020800000,11.632800048828125,-0.99371337890625,-0.034881591796875,0.00018310546875
1760554958030805000,11.642804931640624,-0.99542236328125,-0.03326416015625,0.0010223388671875
1760554958040809000,11.65280908203125,-1.0002899169921875,-0.0248870849609375,0.0010528564453125
1760554958050814000,11.66281396484375,-1.0014190673828125,-0.023590087890625,0.0052642822265625
1760554958060818000,11.67281787109375,-0.9990234375,-0.028533935546875,0.0045166015625
1760554958070823000,11.682822998046875,-0.995880126953125,-0.03228759765625,0.0005950927734375
1760554958080827000,11.692826904296876,-0.993682861328125,-0.0343780517578125,-0.002197265625
1760554958090832000,11.702831787109375,-0.9942474365234375,-0.0352935791015625,-0.001739501953125
1760554958100835800,11.7128359375,-0.993621826171875,-0.0348358154296875,-0.005523681640625
1760554958110840800,11.7228408203125,-0.9932403564453125,-0.035797119140625,-0.00921630859375
1760554958120844800,11.7328447265625,-0.9936370849609375,-0.03460693359375,-0.008636474609375
1760554958130849800,11.742849853515626,-0.9966278076171875,-0.029754638671875,-0.0054779052734375
1760554958140853800,11.752853759765625,-0.9991455078125,-0.0259552001953125,0.003265380859375
1760554958150858800,11.762858642578125,-1.0013427734375,-0.023651123046875,0.0084991455078125
1760554958160863000,11.772863037109374,-1.000396728515625,-0.0244598388671875,0.0112762451171875
1760554958170868000,11.782867919921875,-1.00146484375,-0.018646240234375,0.0125579833984375
1760554958180872000,11.792871826171876,-1.003631591796875,-0.0178985595703125,0.0112457275390625
1760554958190877000,11.802876953125,-1.0017242431640625,-0.019805908203125,0.007598876953125
1760554958200880600,11.812880615234375,-1.001007080078125,-0.0213165283203125,0.00531005859375
1760554958210886000,11.822885986328124,-0.998077392578125,-0.0225372314453125,0.004486083984375
1760554958220889900,11.832889892578125,-0.9984130859375,-0.0240936279296875,0.0053558349609375
1760554958230894800,11.842894775390626,-1.0006103515625,-0.02130126953125,0.003875732421875
1760554958240898800,11.85289892578125,-1.0001220703125,-0.0233917236328125,0.00213623046875
1760554958250903800,11.86290380859375,-0.9975738525390625,-0.0244903564453125,0.0003204345703125
1760554958260907800,11.87290771484375,-0.997314453125,-0.0255279541015625,0.0037384033203125
1760554958270912800,11.882912841796875,-0.993408203125,-0.032012939453125,0.0016937255859375
1760554958280917000,11.8929169921875,-0.993927001953125,-0.031341552734375,0.00048828125
1760554958290922000,11.902921875,-0.9974517822265625,-0.0263214111328125,0.000396728515625
1760554958300926000,11.912926025390625,-0.99969482421875,-0.0209197998046875,0.0022735595703125
1760554958310931000,11.922930908203124,-1.00518798828125,-0.0160064697265625,0.0016326904296875
1760554958320934700,11.9329345703125,-1.0057220458984375,-0.01153564453125,0.001129150390625
1760554958330939600,11.942939697265626,-1.003082275390625,-0.0155792236328125,-0.00494384765625
1760554958340944000,11.95294384765625,-1.0009613037109375,-0.0184173583984375,-0.0029754638671875
1760554958350948900,11.962948974609375,-0.998992919921875,-0.020233154296875,0.0015106201171875
1760554958360952800,11.972952880859374,-0.995635986328125,-0.025787353515625,0.003173828125
1760554958370957800,11.982957763671875,-0.9940185546875,-0.02789306640625,0.0080108642578125
1760554958380961800,11.9929619140625,-0.9981231689453125,-0.0224761962890625,0.00732421875
1760554958390965000,12.002965087890624,-1.00201416015625,-0.01519775390625,0.0109710693359375
1760554958400970000,12.012969970703125,-1.0041046142578125,-0.0103912353515625,0.010589599609375
1760554958410973700,12.0229736328125,-1.0045166015625,-0.00836181640625,0.0104827880859375
1760554958420978700,12.032978759765625,-1.00299072265625,-0.0118255615234375,0.009735107421875
1760554958430983000,12.04298291015625,-1.00335693359375,-0.0126190185546875,0.0074920654296875
1760554958440988000,12.05298779296875,-1.003753662109375,-0.0111083984375,0.0066680908203125
1760554958450991900,12.062991943359375,-1.0046844482421875,-0.0093231201171875,0.0037841796875
1760554958460996900,12.072996826171876,-1.006195068359375,-0.0095367431640625,0.0063323974609375
1760554958471000800,12.083000732421874,-1.0028228759765625,-0.015869140625,0.007659912109375
1760554958481005800,12.093005859375,-1.000213623046875,-0.0232086181640625,0.0084686279296875
1760554958491010000,12.103010009765624,-0.99810791015625,-0.02557373046875,0.00665283203125
1760554958501015000,12.11301513671875,-0.9966278076171875,-0.02728271484375,0.0077667236328125
1760554958511019000,12.12301904296875,-0.997467041015625,-0.0294189453125,0.0027923583984375
1760554958521024000,12.13302392578125,-0.9995574951171875,-0.0271148681640625,0.00347900390625
1760554958531027700,12.14302783203125,-1.0013275146484375,-0.0196990966796875,-0.00177001953125
1760554958541032700,12.15303271484375,-1.0052947998046875,-0.015167236328125,-0.007232666015625
1760554958551037000,12.163036865234375,-1.0088958740234375,-0.012847900390625,-0.0077667236328125
1760554958561042000,12.1730419921875,-1.0123291015625,-0.0115203857421875,-0.01239013671875
1760554958571046000,12.1830458984375,-1.010833740234375,-0.0172271728515625,-0.0094757080078125
1760554958581051000,12.19305078125,-1.001739501953125,-0.0291290283203125,0.0052947998046875
1760554958591054800,12.203054931640626,-0.99951171875,-0.032501220703125,0.0153656005859375
1760554958601059800,12.213059814453125,-1.000030517578125,-0.035919189453125,0.0183868408203125
1760554958611064000,12.22306396484375,-0.9918060302734375,-0.0478515625,0.0202484130859375
1760554958621069000,12.233069091796875,-0.986358642578125,-0.0585479736328125,0.02056884765625
1760554958631072800,12.24307275390625,-0.9844818115234375,-0.062255859375,0.01080322265625
1760554958641077800,12.253077880859376,-0.989288330078125,-0.0595703125,0.0078582763671875
1760554958651081700,12.263081787109375,-0.991546630859375,-0.05364990234375,0.0108642578125
1760554958661086700,12.273086669921875,-0.99359130859375,-0.0488433837890625,0.019012451171875
1760554958671091000,12.283091064453124,-0.9950408935546875,-0.0477752685546875,0.024810791015625
1760554958681096000,12.293095947265625,-0.994232177734375,-0.0473175048828125,0.0322265625
1760554958691100000,12.303099853515626,-0.9959259033203125,-0.0423431396484375,0.0419158935546875
1760554958701105000,12.31310498046875,-0.9976348876953125,-0.036376953125,0.04437255859375
1760554958711108900,12.32310888671875,-0.9985504150390625,-0.0355377197265625,0.0516357421875
1760554958721113900,12.33311376953125,-0.9971160888671875,-0.039764404296875,0.0519561767578125
1760554958731118000,12.3431181640625,-0.9999542236328125,-0.03668212890625,0.04718017578125
1760554958741123000,12.353123046875,-1.003814697265625,-0.0277099609375,0.0516204833984375
1760554958751126800,12.363126708984375,-1.006195068359375,-0.026397705078125,0.0484771728515625
1760554958761131800,12.3731318359375,-1.008453369140625,-0.0266571044921875,0.0466461181640625
1760554958771136800,12.38313671875,-1.0061492919921875,-0.029296875,0.05157470703125
1760554958781141800,12.393141845703125,-1.0056610107421875,-0.034881591796875,0.050689697265625
1760554958791145700,12.403145751953126,-0.9954833984375,-0.0484161376953125,0.05023193359375
1760554958801150700,12.413150634765625,-0.9854736328125,-0.0651092529296875,0.054718017578125
1760554958811155000,12.423155029296876,-0.978118896484375,-0.076873779296875,0.051910400390625
1760554958821160000,12.433159912109375,-0.97698974609375,-0.0814208984375,0.0528411865234375
1760554958831164000,12.443163818359375,-0.9806671142578125,-0.075103759765625,0.0541839599609375
1760554958841169000,12.4531689453125,-0.990753173828125,-0.0606231689453125,0.05169677734375
1760554958851172900,12.4631728515625,-1.0005645751953125,-0.046295166015625,0.053192138671875
1760554958861177900,12.473177734375,-1.0023193359375,-0.04278564453125,0.0502777099609375
1760554958871182000,12.48318212890625,-0.99957275390625,-0.046722412109375,0.0486297607421875
1760554958881187000,12.49318701171875,-0.9985198974609375,-0.0497894287109375,0.0496368408203125
1760554958891190800,12.503190673828126,-1.0012969970703125,-0.0495147705078125,0.0497589111328125
1760554958901195800,12.51319580078125,-1,-0.050506591796875,0.0417327880859375
1760554958911199700,12.52319970703125,-0.9992218017578125,-0.0506591796875,0.0446319580078125
1760554958921204700,12.533204833984374,-0.9998626708984375,-0.05291748046875,0.04608154296875
1760554958931208700,12.543208740234375,-1.00006103515625,-0.0518646240234375,0.0461273193359375
1760554958941213700,12.553213623046876,-1.000732421875,-0.0499267578125,0.0525665283203125
1760554958951217700,12.5632177734375,-0.996002197265625,-0.0559844970703125,0.0574798583984375
1760554958961222700,12.57322265625,-0.9922027587890625,-0.0658721923828125,0.053009033203125
1760554958971226600,12.5832265625,-0.9864654541015625,-0.07098388671875,0.0573577880859375
1760554958981231600,12.593231689453125,-0.9860076904296875,-0.079254150390625,0.0574493408203125
1760554958991235800,12.60323583984375,-0.98626708984375,-0.07879638671875,0.05902099609375
1760554959001240800,12.61324072265625,-0.988677978515625,-0.07110595703125,0.0584716796875
1760554959011244800,12.623244873046875,-0.99224853515625,-0.0638427734375,0.0613555908203125
1760554959021249800,12.633249755859374,-0.9939422607421875,-0.0633544921875,0.066680908203125
1760554959031253800,12.643253662109375,-0.9960479736328125,-0.05902099609375,0.0735321044921875
1760554959041258800,12.6532587890625,-0.9989471435546875,-0.0499420166015625,0.0835418701171875
1760554959051262700,12.6632626953125,-1.00213623046875,-0.0437469482421875,0.0855712890625
1760554959061267700,12.673267822265625,-1.008148193359375,-0.035858154296875,0.08544921875
1760554959071271700,12.683271728515624,-1.0140838623046875,-0.0253143310546875,0.08935546875
1760554959081276700,12.693276611328125,-1.01544189453125,-0.023223876953125,0.089996337890625
1760554959091280600,12.70328076171875,-1.0117034912109375,-0.0296783447265625,0.092193603515625
1760554959101285600,12.71328564453125,-1.0007171630859375,-0.0426177978515625,0.1084442138671875
1760554959111289900,12.723289794921875,-0.98687744140625,-0.06500244140625,0.1158447265625
1760554959121294800,12.733294921875,-0.9822540283203125,-0.0784912109375,0.1051788330078125
1760554959131298800,12.743298828125,-0.979644775390625,-0.0829620361328125,0.1046600341796875
1760554959141303800,12.7533037109375,-0.97772216796875,-0.088287353515625,0.110565185546875
1760554959151307800,12.763307861328125,-0.9760589599609375,-0.0911865234375,0.1110992431640625
1760554959161312800,12.773312744140625,-0.9789886474609375,-0.08660888671875,0.111419677734375
1760554959171316700,12.783316650390624,-0.979461669921875,-0.085296630859375,0.1150054931640625
1760554959181321700,12.79332177734375,-0.980712890625,-0.08282470703125,0.1151580810546875
1760554959191325700,12.80332568359375,-0.9839324951171875,-0.0801849365234375,0.112518310546875
1760554959201330700,12.81333056640625,-0.9850311279296875,-0.078338623046875,0.117706298828125
1760554959211334700,12.823334716796875,-0.9847259521484375,-0.0775604248046875,0.1207733154296875
1760554959221339600,12.833339599609374,-0.98468017578125,-0.0723724365234375,0.1253509521484375
1760554959231343900,12.84334375,-0.9891510009765625,-0.0689697265625,0.1262359619140625
1760554959241348900,12.853348876953126,-0.9906005859375,-0.063995361328125,0.125762939453125
1760554959251352800,12.863352783203124,-0.99444580078125,-0.057220458984375,0.124114990234375
1760554959261357800,12.87335791015625,-0.998199462890625,-0.055328369140625,0.117095947265625
1760554959271361500,12.883361572265626,-0.99884033203125,-0.05511474609375,0.1180572509765625
1760554959281366800,12.89336669921875,-0.99749755859375,-0.05645751953125,0.127410888671875
1760554959291370800,12.903370849609376,-0.994171142578125,-0.0591583251953125,0.13616943359375
1760554959301375700,12.913375732421875,-0.99102783203125,-0.0639801025390625,0.13665771484375
1760554959311379700,12.923379638671875,-0.98944091796875,-0.065216064453125,0.1429901123046875
1760554959321384700,12.933384765625,-0.991424560546875,-0.0615997314453125,0.145965576171875
