time,seconds_elapsed,z,y,x
1760554946465615000,0.077614990234375,0.014148936861753463,-0.017422551704943178,0.04281608228906989
1760554946475620000,0.0876201171875,-0.019031448206305503,0.03955781114548444,0.013551628555729984
1760554946485624000,0.0976240234375,-0.02716273221373558,0.030317396852374074,0.0360342401292175
1760554946495629000,0.107629150390625,0.185461781334877,-0.2484767481744289,0.1006266854185611
1760554946505632800,0.1176328125,0.24836159736216068,-0.3561591242581606,0.0241411924354732
1760554946515637800,0.1276376953125,0.22190964376628397,-0.30774902135431764,0.0012281535554677248
1760554946525642000,0.13764208984375,0.2197860757410526,-0.2900464836642146,-0.022158128859475254
1760554946535647000,0.14764697265625,0.20903496462404728,-0.31451486222743985,-0.014663827581331133
1760554946545651000,0.15765087890625,0.17382570407688616,-0.2534925305098295,0.011714841582626104
1760554946555656000,0.167656005859375,0.11983107903897762,-0.1746791060358286,0.05303308652937412
1760554946565660000,0.177659912109375,0.10861351945400237,-0.17544380679801105,0.0582689413562417
1760554946575665000,0.187664794921875,0.07489712781310082,-0.13244827628880737,0.018222981367632746
1760554946585669000,0.197669189453125,0.027548516660928724,-0.02153174058943987,0.037129561085253955
1760554946595674000,0.207674072265625,-0.007139350360631943,0.01777151127308607,0.05343589517660439
1760554946605677800,0.217677734375,-0.007582417953014373,0.016168606121093033,0.04967500827312469
1760554946615682800,0.227682861328125,0.034062428599596024,-0.04322451695948839,0.044002588659897444
1760554946625686800,0.237686767578125,0.09964227749109268,-0.1377262166917324,0.01384323191344738
1760554946635691800,0.24769189453125,0.18186171101629733,-0.28149609746187926,-0.04397372789159417
1760554946645696000,0.257696044921875,0.21856793212294578,-0.3434615552484989,0.010246741791442035
1760554946655700000,0.267699951171875,0.13476912045180797,-0.23525223268121478,-0.021865502588450908
1760554946665705000,0.277705078125,0.12056231592297553,-0.18962328492850064,-0.042285920935124156
1760554946675709000,0.287708984375,0.17722820599675176,-0.2625911982446909,-0.011031608558818698
1760554946685714000,0.2977138671875,0.3094108170866966,-0.49904228532165285,-0.035319004531949756
1760554946695718100,0.30771826171875,0.43773558370471,-0.7030503616943955,-0.05524257927238941
1760554946705723100,0.31772314453125,0.5193447763770819,-0.8375481178589165,-0.07018003616333007
1760554946715726800,0.327726806640625,0.5350251605898142,-0.863992764931172,-0.10607925173602997
1760554946725731800,0.33773193359375,0.45095571528375145,-0.7039836970217526,-0.08068155643343924
1760554946735735800,0.34773583984375,0.32822774575948716,-0.5277290122322738,-0.025211744276434182
1760554946745740800,0.35774072265625,0.24918986487984657,-0.38902094489634037,0.02701440978422761
1760554946755745000,0.3677451171875,0.19047990175783633,-0.3186053464114666,0.000538417725637555
1760554946765750000,0.37775,0.11282616871297359,-0.1911103086158633,0.03350143371596932
1760554946775754000,0.38775390625,0.030873861691355704,-0.055190410693734884,-0.005136632236093282
1760554946785759000,0.397759033203125,-0.07545885334908962,0.1285671970717609,-0.09848024797439575
1760554946795763000,0.407762939453125,-0.17407997109889983,0.317522446545586,-0.061951137000322336
1760554946805768000,0.417767822265625,-0.2527010878711939,0.46271110807247456,-0.08653389919083565
1760554946815772200,0.427772216796875,-0.28932722947895523,0.5614540255710482,-0.07181972966175526
1760554946825777200,0.437777099609375,-0.3129892600953579,0.5530845488935708,-0.015383118299208581
1760554946835780900,0.44778076171875,-0.25488018547594543,0.4776849514510482,0.0795685902228579
1760554946845785900,0.457785888671875,-0.23072364934086798,0.4665222638584673,0.21803525001835078
1760554946855789800,0.467789794921875,-0.1305804365903139,0.27000622374154626,0.2944811416434124
1760554946865794800,0.477794921875,0.006928337958455085,-0.008054054052755236,0.30785160494595765
1760554946875799000,0.487799072265625,0.0023410101681947708,-0.013727569644525647,0.3595898293592036
1760554946885804000,0.497803955078125,-0.027426351585984228,0.09973499727584421,0.2942974556395784
1760554946895808000,0.50780810546875,-0.10865385146439074,0.22855445207562297,0.22849519616905598
1760554946905813200,0.517813232421875,-0.14234627770781516,0.27064612908028063,0.17260368800126016
1760554946915817200,0.527817138671875,-0.09797931271493435,0.1589922555496916,0.09466317390426993
1760554946925821200,0.5378212890625,-0.005033317992091179,0.007970102096349,0.21990911759883164
1760554946935826200,0.547826171875,-0.001695113480091095,-0.0413289124712348,0.22841665104012934
1760554946945830400,0.557830322265625,-0.12841829012036324,0.23780527816489339,0.1588382340317592
1760554946955835400,0.56783544921875,-0.2858779658079147,0.6148667590677738,0.14055179550647734
1760554946965839000,0.577839111328125,-0.31890988231599326,0.7558186598077415,0.01145666557047516
1760554946975844000,0.587843994140625,-0.2495803255021572,0.6647960343629121,0.08094860987178981
1760554946985848000,0.59784814453125,-0.18759294814467428,0.507991169322282,0.09395864236410707
1760554946995853300,0.607853271484375,-0.15085574737787247,0.4572177713532001,0.04899151952099055
1760554947005857300,0.617857177734375,-0.12808861977458,0.37460714655332267,0.12903433965947478
1760554947015862300,0.6278623046875,-0.09786416190266609,0.24076361651383338,0.050362625211104746
1760554947025866200,0.6378662109375,-0.07246376318633556,0.17392445174362509,-0.05402505670879036
1760554947035871200,0.647871337890625,-0.07358019999563693,0.19880493650538847,-0.03989811248313636
1760554947045875200,0.657875244140625,-0.09122282419204711,0.2336941895842552,-0.07056998532898724
1760554947055880200,0.667880126953125,-0.11823884141147135,0.3166611535411328,-0.040168819183297455
1760554947065884400,0.677884521484375,-0.19177169513404368,0.5217386492436752,-0.01794284925200045
1760554947075889400,0.687889404296875,-0.26840485295951366,0.6437822532329708,-0.13841737729366868
1760554947085893000,0.69789306640625,-0.27339842346310617,0.5461203359041362,-0.18224384220167994
1760554947095898000,0.707898193359375,-0.21843524565398692,0.4271514631850645,-0.1280506989169866
1760554947105902000,0.717902099609375,-0.17323767505586146,0.33668365861140187,-0.09640008069947362
1760554947115907000,0.727906982421875,-0.10536942296624183,0.21223920402545482,-0.13767876082081346
1760554947125911300,0.737911376953125,-0.055604398322105404,0.11880239357836545,0.10124624208901077
1760554947135916300,0.747916259765625,-0.0008516483932733535,0.02853990231845528,0.25052575312610714
1760554947145920300,0.757920166015625,0.05281856699585914,-0.10057685492746532,0.3045600891198963
1760554947155925200,0.76792529296875,0.16014555377066134,-0.2788288510140031,0.35593824804909524
1760554947165929200,0.77792919921875,0.3105781073004007,-0.5833317300539463,0.23705968396198004
1760554947175934200,0.787934326171875,0.32724691802859307,-0.6750928989063948,0.11120912543777375
1760554947185938400,0.7979384765625,0.3157639855057001,-0.6443979009132832,0.10982158006951212
1760554947195943400,0.807943359375,0.3304004136234522,-0.6807714559994638,0.10772000468038022
1760554947205947100,0.817947021484375,0.32748540295958517,-0.681979662745446,-0.03502338258624076
1760554947215951000,0.827951171875,0.307906842264533,-0.6185366066869348,-0.09572181611172854
1760554947225956000,0.8379560546875,0.24208909296393394,-0.5134227659169585,-0.1413689205756411
1760554947235960300,0.847960205078125,0.13179507307708263,-0.31045404252931474,-0.15268391265310347
1760554947245965300,0.85796533203125,-0.059602528047561644,0.05995367957279086,-0.09805431417990475
1760554947255969300,0.86796923828125,-0.19862346072494982,0.35466296741627157,-0.05931406649500131
1760554947265974300,0.877974365234375,-0.2922358104020357,0.5655513778872787,-0.09583382511883974
1760554947275978200,0.887978271484375,-0.2864846995294094,0.572152602783218,-0.07330383073966949
1760554947285983200,0.897983154296875,-0.23846330368220806,0.4601319782994687,0.025302637430280446
1760554947295987500,0.907987548828125,-0.06026829847991466,0.11931136601381004,0.14074629516527057
1760554947305992400,0.917992431640625,0.21248539733886718,-0.41777043484486637,-0.07026384198926389
1760554947315996200,0.92799609375,0.3384995489269495,-0.7000817942123859,-0.1321431923950091
1760554947326001200,0.938001220703125,0.36343233013153076,-0.7602068117640912,-0.1674038908684626
1760554947336005000,0.948005126953125,0.3369534885287285,-0.7231071343604475,-0.23224347931928932
1760554947346010000,0.958010009765625,0.34206863958537576,-0.7387094849009066,-0.22375297007802872
1760554947356014300,0.968014404296875,0.33399989942014213,-0.7213205432046205,-0.1695836460603401
1760554947366019300,0.978019287109375,0.22175883711874483,-0.48790378232225773,-0.11842132183890788
1760554947376023300,0.988023193359375,0.08182137411832809,-0.22834566816315052,-0.0838115980874747
1760554947386028300,0.9980283203125,0.028494857600331304,-0.13333353469073772,-0.125612365854159
1760554947396032300,1.0080322265625,0.026134558209776875,-0.12171842715553939,-0.07834021747168153
1760554947406037200,1.018037353515625,-0.025244915893673895,0.010913242876157164,0.003261193753033876
1760554947416041200,1.028041259765625,-0.08966156622469425,0.18763331668768077,0.04274623192325234
1760554947426046200,1.038046142578125,-0.18936054233908653,0.35759218926858155,0.008153020915202796
1760554947436050200,1.04805029296875,-0.19750234774053096,0.43816206548847253,0.006750497173517942
1760554947446055200,1.05805517578125,-0.18362521355748176,0.38037995780110356,0.000018083645962178705
1760554947456059100,1.06805908203125,-0.14499182378053665,0.3722778633555397,0.08175937826540321
1760554947466064100,1.078064208984375,-0.1471031168460846,0.3729063339848071,0.1453694614538923
1760554947476068400,1.088068359375,-0.12556173164546489,0.3254510475877672,0.1678737368699163
1760554947486073300,1.0980732421875,-0.08934884701371193,0.2692253390295431,0.18759532276485114
1760554947496077300,1.108077392578125,0.002475450202822685,0.058268685627914964,0.2835166435040533
1760554947506081300,1.118081298828125,0.10770166530609131,-0.1541551542494446,0.3590515577640384
1760554947516086300,1.128086181640625,0.1993564511746168,-0.3973949516184628,0.3629655163373798
1760554947526090200,1.13809033203125,0.3272720524698496,-0.7079875258356333,0.35699082584194836
1760554947536095200,1.14809521484375,0.4031149367004633,-0.8472612642303109,0.3644008463701233
1760554947546099200,1.15809912109375,0.3602303192198276,-0.793623855132237,0.30871728186458347
1760554947556104200,1.168104248046875,0.24244682036042212,-0.5786708621034399,0.25430976517684756
1760554947566108200,1.178108154296875,0.05886252333521843,-0.1771980665868148,0.27748730021193624
1760554947576113200,1.188113037109375,-0.08555296186208725,0.1316844340431504,0.05395754443053156
1760554947586117400,1.198117431640625,-0.22279460990726946,0.4391389111639932,-0.041492870861291886
1760554947596122400,1.208122314453125,-0.30801731690168377,0.7233216538939624,-0.10003160560224204
1760554947606126300,1.218126220703125,-0.2816442737609148,0.6955223773423582,-0.10902180799394845
1760554947616131300,1.22813134765625,-0.21838965294659138,0.566522195680812,-0.06531878680251538
1760554947626135300,1.23813525390625,-0.2018698953002691,0.5565233642358333,-0.07813837475664913
1760554947636140300,1.248140380859375,-0.1657511186927557,0.46546537521667775,0.042695561181940136
1760554947646144300,1.258144287109375,-0.07973872262537479,0.2351121848897077,0.10572028223052621
1760554947656149200,1.268149169921875,-0.012295417949557304,0.007073500316496938,0.0616369564846158
1760554947666153200,1.2781533203125,0.07628478277921676,-0.20087556876698506,0.06283913534861058
1760554947676158200,1.288158203125,0.11810849303007125,-0.27864419689578934,0.05573218942023814
1760554947686162200,1.298162109375,0.09343757763206958,-0.29732560782171785,0.08739857146246358
1760554947696167200,1.308167236328125,0.09939853186309337,-0.29312552578337486,0.052188762926030904
1760554947706171400,1.31817138671875,0.10408464385271071,-0.2906135064298287,-0.05601091503007337
1760554947716176400,1.32817626953125,0.12707973499298095,-0.3346948959469795,-0.057929041877388954
1760554947726180400,1.338180419921875,0.09414660268425941,-0.28295458917450156,-0.09691519061475992
1760554947736185300,1.348185302734375,0.029767946276068685,-0.11121235857447609,-0.13289035750050096
1760554947746189300,1.358189208984375,-0.02809679819345474,0.02242786744525656,-0.15077968646697698
1760554947756194300,1.3681943359375,-0.039355274310708045,0.09336043900894,-0.13866229196544735
1760554947766198300,1.3781982421875,-0.056819619330763814,0.11624061679895967,-0.12493106905911117
1760554947776202200,1.3882021484375,-0.05176058237552642,0.08664468435524031,-0.1390564606484957
1760554947786207200,1.398207275390625,-0.03298866188824177,0.025291367117594925,-0.0847165658368729
1760554947796211200,1.408211181640625,0.014346505260467528,-0.07110482285805046,0.02122682109242305
1760554947806216200,1.41821630859375,0.06245557939112186,-0.17863513191891833,0.05961052869092673
1760554947816220200,1.42822021484375,0.102224695199728,-0.2827068980237469,0.04373345286231488
1760554947826225400,1.438225341796875,0.11704115605950355,-0.3675117814648896,0.09660230700699612
1760554947836229400,1.4482294921875,0.1382055246412754,-0.4138693357530981,0.16793312064064667
1760554947846234400,1.458234375,0.07770634001493454,-0.26395324384551494,0.12636437153154984
1760554947856238300,1.46823828125,-0.014077040669322013,0.02898193786437623,0.13512096609678118
1760554947866243300,1.478243408203125,-0.08255027291476726,0.22463163434239103,0.07882714247209952
1760554947876247000,1.4882470703125,-0.08925590803325176,0.2784602734299376,0.07349677776219322
1760554947886252300,1.498252197265625,-0.09838730899393558,0.272485856929142,0.05497311468124389
1760554947896256300,1.50825634765625,-0.1000678094267845,0.28622670618034896,0.023109255571849643
1760554947906261500,1.518261474609375,-0.12841829012036324,0.3626125381812453,0.036216738822963085
1760554947916265500,1.528265380859375,-0.12702654350101947,0.44060741281397636,0.10715163020789623
1760554947926270500,1.5382705078125,-0.10547639047205448,0.3831758355973288,0.12601652620825915
1760554947936274400,1.5482744140625,-0.09759411278963089,0.3208988641761243,0.17521131321638822
1760554947946279400,1.558279541015625,-0.056234512919187546,0.2086463306326419,0.25580732852453364
1760554947956283600,1.56828369140625,-0.015074235013127326,0.0973263926309999,0.19935524559821932
1760554947966288600,1.57828857421875,0.023364508974552153,-0.03266406957637519,0.19526962025240063
1760554947976292600,1.588292724609375,0.03081833211183548,-0.12901062999032437,0.1711627319453284
1760554947986297600,1.598297607421875,0.08960545212328433,-0.29803129013935103,0.1005102742309682
1760554947996301300,1.60830126953125,0.11580781487226485,-0.31642522589340805,0.016408187030628324
1760554948006306300,1.618306396484375,0.08501870885491371,-0.20556189995231106,-0.03538184063509107
1760554948016310500,1.628310546875,0.05453939943909645,-0.1647588927850127,-0.05639401432983577
1760554948026314500,1.638314453125,0.039623569858074185,-0.12754662185236812,-0.07980075501091778
1760554948036319500,1.648319580078125,-0.00044423663616180415,-0.016191439007408916,-0.051463261663075535
1760554948046323500,1.658323486328125,-0.039943887853622434,0.06443593955338,-0.022669256719388065
1760554948056328400,1.668328369140625,-0.06318681627511978,0.13881311687929554,-0.02008996254960075
1760554948066332700,1.678332763671875,-0.12138064656853675,0.2632709789360873,-0.0385853859167546
1760554948076337700,1.688337646484375,-0.13287351596355437,0.33848862567413596,0.020328027355484665
1760554948086341400,1.69834130859375,-0.13851356767714024,0.32340558630004523,0.09401766080865635
1760554948096346600,1.7083466796875,-0.16049918951392173,0.3789592773482203,0.07654887707550079
1760554948106350300,1.718350341796875,-0.17700608767867088,0.3875997529868036,0.17327249064091593
1760554948116355300,1.728355224609375,-0.13566343894302843,0.2850628135001287,0.16067507580379023
1760554948126359600,1.738359619140625,-0.06609072102308274,0.10314758219830691,0.08652135023651644
1760554948136364500,1.748364501953125,-0.005345452681183815,-0.01982917445525527,0.07490059841182083
1760554948146368500,1.758368408203125,0.025222704061865806,-0.10011928388569503,-0.06595028963908553
1760554948156373500,1.76837353515625,0.09252923061549663,-0.20507870127893982,-0.17829342407546936
1760554948166377500,1.77837744140625,0.1347246967881918,-0.2694440963467583,-0.09024596025021746
1760554948176382500,1.788382568359375,0.1794230856925249,-0.40350426481161267,-0.21643705757409332
1760554948186386700,1.79838671875,0.2666927883446216,-0.564594917412661,-0.14305632567331195
1760554948196391700,1.8083916015625,0.3130623253315687,-0.6410993708245456,0.07364628750178963
1760554948206395400,1.8183955078125,0.3117033119380474,-0.6404366691321134,0.07802117811776697
1760554948216400400,1.828400390625,0.250123346337676,-0.5044942671172321,0.14552249659113586
1760554948226404400,1.838404296875,0.15035013594329355,-0.26663389776423574,0.17016257845945656
1760554948236409300,1.848409423828125,0.06237374632656574,-0.13683756075631825,0.15054870898900552
1760554948246413600,1.85841357421875,0.03295943579375744,-0.05690247530862689,0.18274137992765754
1760554948256418600,1.86841845703125,-0.050237318331003186,0.10842157707847654,0.12968927817055956
1760554948266422500,1.878422607421875,-0.13571604591310024,0.24628113782629368,0.025647742807213214
1760554948276427500,1.888427490234375,-0.14631225872933865,0.32431280080545694,0.03679592695040628
1760554948286431500,1.898431396484375,-0.20540216107964515,0.4168937616081908,-0.009997224009782075
1760554948296435700,1.908435791015625,-0.2138128465503454,0.4328900068370625,0.014980236586742102
1760554948306440700,1.918440673828125,-0.10502338600754738,0.19535572763327508,0.0551483799166046
1760554948316444400,1.9284443359375,0.13127894024848938,-0.24610676764007655,-0.012431556750927119
1760554948326449400,1.938449462890625,0.3047702978044748,-0.5949614506363868,0.011644370162300764
1760554948336453400,1.948453369140625,0.35593817498385905,-0.7149939705315977,0.03663585928417742
1760554948346458400,1.958458251953125,0.28971885914504525,-0.6199602828145027,0.005947217966616154
1760554948356462600,1.968462646484375,0.25639643525779243,-0.515077145527862,0.016090755111910403
1760554948366467600,1.978467529296875,0.21021336075365543,-0.4296763054875657,0.0015641440441831946
1760554948376471600,1.988471435546875,0.15240648395121098,-0.3278190553607419,-0.023844985967874526
1760554948386476500,1.9984765625,0.100229137468338,-0.21391356697846203,0.06283173749344423
1760554948396480500,2.00848046875,0.016921324184536932,-0.06731887457855046,0.12518142709098756
1760554948406485500,2.018485595703125,-0.09691899000704288,0.18105857793986796,0.08457315704450011
1760554948416489700,2.02848974609375,-0.17196107924878595,0.32319106676653026,0.004096384201850742
1760554948426494700,2.03849462890625,-0.15673019236922264,0.3134104446494952,0.044986485130712385
1760554948436498400,2.04849853515625,-0.13333295016884802,0.27232999051399526,0.057895230939332396
1760554948446503400,2.05850341796875,-0.13376783445477486,0.2682101706376299,0.015444456565007567
1760554948456507400,2.06850732421875,-0.12196283037066459,0.26054533509816974,0.013533289181441067
1760554948466512400,2.078512451171875,-0.11047171454131603,0.2615605034900829,0.04671699871774763
1760554948476516600,2.0885166015625,-0.09418751921653747,0.24054032915197313,0.04125893424125388
1760554948486521600,2.098521484375,-0.09958733243346214,0.2264815182590857,0.04954962832778692
1760554948496525600,2.108525634765625,-0.04897825818061828,0.08072565130349248,0.038518640823476016
1760554948506530600,2.118530517578125,0.05237959105670452,-0.12479330455623566,0.05658226691093295
1760554948516534500,2.128534423828125,0.14187632210850715,-0.2528133160740137,0.07401566880345344
1760554948526539500,2.13853955078125,0.170808402082324,-0.3678714450901374,0.08569388643642888
1760554948536543500,2.14854345703125,0.18708324505686758,-0.3914982947953045,0.14972842384837567
1760554948546547500,2.15854736328125,0.1908475660264492,-0.38534777280893173,0.07404199055479839
1760554948556552400,2.168552490234375,0.1445060860902071,-0.31040848635453727,0.11085614728163927
1760554948566556400,2.178556396484375,0.08838964659273624,-0.17868954725358635,0.11780355526674538
1760554948576561400,2.1885615234375,0.03123042004406452,-0.039686004102416336,0.0687321389099583
1760554948586565400,2.1985654296875,-0.04813830022513866,0.09466978630814701,0.05205050523281097
1760554948596570400,2.2085703125,-0.0730021078467369,0.14105010041743515,0.026741255398653446
1760554948606574600,2.21857470703125,-0.03826046481132507,0.10412139566652476,0.05954033126523718
1760554948616579600,2.22857958984375,-0.04101064030230045,0.08989917437285184,0.02892329387916252
1760554948626583600,2.23858349609375,-0.054310851380228994,0.09912000718265772,0.007750267066899686
1760554948636588500,2.248588623046875,-0.055119829675555225,0.11400219022240489,0.009968746833968907
1760554948646592500,2.258592529296875,-0.028759646016359327,0.06707465402651577,0.030124924753885715
1760554948656597500,2.268597412109375,0.008652093011140822,-0.015076426970213651,0.03355243325084448
1760554948666601500,2.2786015625,0.018980010280013084,-0.0653242666952312,0.016802246115822345
1760554948676606500,2.2886064453125,0.050157238832116126,-0.09580258973035961,0.040770127811003476
1760554948686610400,2.2986103515625,0.08500000415444374,-0.20165811571311204,0.023174484561476857
1760554948696615400,2.308615478515625,0.1286374858289957,-0.3108455260649323,-0.004118888294603675
1760554948706619400,2.318619384765625,0.143691262575984,-0.3786621940977871,-0.044972420072741805
1760554948716624400,2.328624267578125,0.1572545085042715,-0.41143830921389163,-0.0483161044774577
1760554948726628600,2.338628662109375,0.16001871252059935,-0.3766483335247263,-0.05469088194007054
1760554948736633600,2.348633544921875,0.12964637061059475,-0.3176123167861253,-0.0016084763762541114
1760554948746637600,2.358637451171875,0.08944938477873801,-0.2593617148041725,0.023132216322328893
1760554948756642600,2.368642578125,0.035624855610728264,-0.12104319477509706,-0.03224189864154905
1760554948766646300,2.378646240234375,-0.09538111291527747,0.13517110711513086,-0.09235639479923993
1760554948776651300,2.3886513671875,-0.1454471663326025,0.32627558877840634,-0.0635318668531254
1760554948786655500,2.398655517578125,-0.12877777108252048,0.28779212886616584,-0.08736096113212406
1760554948796660500,2.408660400390625,-0.06417641183435917,0.17450292748501522,-0.040633879411779344
1760554948806664400,2.41866455078125,-0.06489186662733555,0.11722911637965588,-0.039097755885683
1760554948816668400,2.42866845703125,-0.052498249000310894,0.11763769718054681,-0.0582820748324506
1760554948826673400,2.43867333984375,-0.04989186589419842,0.1692597844008356,-0.02323094572275877
1760554948836677600,2.448677734375,-0.04868015201687813,0.1976387422702275,0.005911105473618954
1760554948846682600,2.4586826171875,-0.04331716367900371,0.11380622925888746,0.04839298737226054
1760554948856686600,2.4686865234375,0.012031798577308654,-0.05252615992054343,0.07339205701239407
1760554948866691600,2.478691650390625,0.07282675127983093,-0.21387500680005175,0.11170496439700946
1760554948876695300,2.4886953125,0.09255319601297378,-0.23397149042198434,0.09709975340142846
1760554948886700300,2.4987001953125,0.060871525070071215,-0.1376765871300362,0.12760268115485085
1760554948896704500,2.50870458984375,0.016053309178352355,-0.045604434365965424,0.0779811566346325
1760554948906709500,2.51870947265625,-0.03536708145737648,0.08538211707351728,0.016310115217324346
1760554948916713500,2.52871337890625,-0.07472177124619483,0.1982729302542284,-0.04235261122947558
1760554948926718500,2.538718505859375,-0.0810977360188961,0.21792981688249854,-0.04356262634005397
1760554948936722400,2.548722412109375,-0.08277297575473785,0.2434093452496454,-0.013869261403847486
1760554948946727400,2.5587275390625,-0.08574176243245601,0.24421941952351478,0.04047176591893658
1760554948956731600,2.568731689453125,-0.04060907376408577,0.14380897067151963,0.1265558389830403
1760554948966736600,2.578736572265625,-0.0018050035953521728,0.015313888987898826,0.18267317352965473
1760554948976740400,2.588740234375,0.02232639809846878,-0.044994321377296,0.21716597463684156
1760554948986745300,2.598745361328125,0.05394961685240268,-0.1467499012279324,0.21203096810225397
1760554948996749300,2.608749267578125,0.10013736753165721,-0.22320001237038523,0.24426610820945352
1760554949006754300,2.61875439453125,0.10763035363554954,-0.23104150138469412,0.2247837378978729
1760554949016758500,2.628758544921875,0.07537585124075412,-0.18603815645072608,0.19114532513031735
1760554949026763500,2.638763427734375,0.07399696410298347,-0.16747671864265576,0.15790292594302444
1760554949036767500,2.648767578125,0.04600654889345169,-0.06095047205779701,0.07491860899254679
1760554949046772500,2.6587724609375,-0.01537117213308811,0.06004024361139163,0.0651889681440778
1760554949056776400,2.6687763671875,-0.05120002588331699,0.09975140042137354,0.03642354997405782
1760554949066780700,2.67878076171875,-0.048321255576610565,0.1021696953431703,0.025194866206869483
1760554949076785700,2.68878564453125,-0.03501286119222641,0.08543501630453393,0.023366481735929846
1760554949086789400,2.698789306640625,-0.046137481796741486,0.1242939767319709,0.08080563947083429
1760554949096794400,2.70879443359375,-0.08141454688310623,0.2215413219105452,0.08092499153418466
1760554949106798300,2.71879833984375,-0.08161737597882747,0.20984052711958065,0.05878293702667579
1760554949116803300,2.72880322265625,-0.06348726052641868,0.10962180144740268,0.018742895322199908
1760554949126807600,2.7388076171875,-0.0020095862567424774,-0.008223693264927714,-0.006414360554330051
1760554949136812500,2.7488125,0.04389584034979343,-0.0733288555830717,0.018249449249450118
1760554949146816500,2.75881640625,0.03025017683506012,-0.08313559852205217,0.03985710461931303
1760554949156821500,2.768821533203125,0.054630584853887554,-0.08123396615181118,0.06077310619689524
1760554949166825500,2.778825439453125,0.03083820585608482,-0.08864479039758444,0.08211926108635961
1760554949176830500,2.78883056640625,0.036978608307242394,-0.07504256416577845,0.08176646559331566
1760554949186834700,2.798834716796875,0.046266661134362216,-0.08101973887924105,0.04549470864748582
1760554949196839700,2.808839599609375,0.06515548599958419,-0.1653176226463169,0.04666057408908382
1760554949206843400,2.818843505859375,0.14429215107858182,-0.3220384261326864,0.0469105485284701
1760554949216848400,2.828848388671875,0.1632856053620577,-0.3671312211820856,0.10821122226342558
1760554949226852400,2.838852294921875,0.1477344004869461,-0.31600959429722275,0.10361561983516439
1760554949236857300,2.848857421875,0.08650748610794544,-0.21457553801853207,0.0547885336282663
1760554949246861600,2.858861572265625,0.02907061166167259,-0.059872175301797684,0.061703683311585336
1760554949256866600,2.868866455078125,-0.026287118422985076,0.05279551491383463,0.006534607666824012
1760554949266870500,2.87887060546875,-0.07753624414503574,0.1563478419881314,-0.011824128909688442
1760554949276875500,2.88887548828125,-0.08999065204858779,0.18004856064710764,-0.008420695408061146
1760554949286879500,2.89887939453125,-0.07875555680692195,0.14672726927101612,0.02794895068798214
1760554949296884500,2.908884521484375,-0.09306114553511143,0.19270440940689296,0.07580443365005776
1760554949306888400,2.918888427734375,-0.10149754996895789,0.24435177719891069,0.13096819379888475
1760554949316893400,2.9288935546875,-0.15784019943773744,0.3781705746559426,0.15396861870139836
1760554949326897400,2.9388974609375,-0.14090893838107585,0.34532113857530056,0.2538975311141461
1760554949336901400,2.9489013671875,-0.07428805600404739,0.1775733296399936,0.2626121314348653
1760554949346906400,2.95890625,0.006170213067531585,0.018885025472939014,0.18869290874321012
1760554949356910600,2.96891064453125,0.04755319381356239,-0.09703772101588547,0.1504866948697716
1760554949366915600,2.97891552734375,0.044805356410145755,-0.09537274694573133,0.11143887907303869
1760554949376919600,2.98891943359375,0.06243044494986534,-0.12471055817622691,0.09558233457580208
1760554949386924500,2.998924560546875,0.1022685343414545,-0.20264796700067816,0.03425853569358587
1760554949396928500,3.008928466796875,0.10719488482773304,-0.26073446446210147,-0.007142072040680796
1760554949406933500,3.01893359375,0.11958850245475769,-0.22890903766695408,0.0072204345065169035
1760554949416937500,3.0289375,0.10380407334566116,-0.18760756119191646,-0.019887736242078242
1760554949426942500,3.0389423828125,0.09589549217820167,-0.1602215781489387,-0.00015997633468359707
1760554949436946400,3.048946533203125,0.050641222956776616,-0.10209317777454853,-0.012924400035478173
1760554949446951400,3.058951416015625,0.008259878823161124,-0.042717882611602545,-0.0471921054162085
1760554949456955400,3.068955322265625,-0.028782442370057105,0.060696606894582505,-0.05791722357543185
1760554949466960400,3.07896044921875,-0.07012333754003047,0.11645327316895127,-0.10446242765653878
1760554949476964400,3.08896435546875,-0.0680313336968422,0.11294599570035933,-0.08824050217932089
1760554949486969300,3.09896923828125,-0.05798924763202667,0.09968936803583055,-0.1688961569865234
1760554949496973600,3.1089736328125,-0.007936053696274757,0.012251944134011863,-0.17586190434591845
1760554949506978600,3.118978515625,0.03866846109032631,-0.07316255910545587,-0.09336770899994298
1760554949516982500,3.128982421875,0.0715641839981079,-0.154643960679695,-0.08667763677677139
1760554949526987500,3.138987548828125,0.07643734299242497,-0.1746772794049233,-0.09195254497239366
1760554949536991200,3.1489912109375,0.06404898606240748,-0.14439509999640285,-0.06779003575425595
1760554949546996500,3.15899658203125,0.047107788133621216,-0.08950016511790454,-0.08142136021638288
1760554949557000400,3.16900048828125,0.03919336174726486,-0.06358750603049994,-0.04892461003093049
1760554949567005400,3.17900537109375,0.042236967226862904,-0.07017199898734688,-0.03256102932700887
1760554949577009400,3.189009521484375,0.03347907575368881,-0.071497329306975,-0.0038593971082009374
1760554949587014400,3.199014404296875,0.027575404667854308,-0.03631013446114957,0.06176770672481507
1760554949597018400,3.209018310546875,-0.016227496701478956,0.05756941478475928,0.04556233052359893
1760554949607022600,3.219022705078125,-0.04922901807129383,0.09767857620269059,0.03867492736373097
1760554949617027600,3.229027587890625,-0.05006371532976627,0.11247099859975278,0.09781235865019261
1760554949627031600,3.239031494140625,-0.012536240968108176,0.0404243648469448,0.12839425165764987
1760554949637036500,3.24903662109375,0.018982932889461516,-0.023423326489701867,0.11948471328672021
1760554949647040300,3.259040283203125,0.005448328533768654,0.0023581074334681033,0.1527151845742017
1760554949657045200,3.269045166015625,-0.038085108244419096,0.10714797694608569,0.14694836467579006
1760554949667049500,3.279049560546875,-0.08315174593925476,0.19081680556200445,0.12438560053817928
1760554949677054500,3.289054443359375,-0.09388181426823139,0.18085874451883135,0.10950900698900222
1760554949687058400,3.299058349609375,-0.037272622817754744,0.09466543892659246,0.17529270788952708
1760554949697063400,3.3090634765625,-0.019948563051223753,0.05626169318705797,0.20133432711884378
1760554949707067400,3.3190673828125,-0.03640402328968048,0.0758300247490406,0.1494222439760342
1760554949717072400,3.329072265625,-0.01165770456790924,0.04719721998274326,0.1491507335582748
1760554949727076600,3.33907666015625,-0.007945406046509743,0.011385755758732557,0.10017660356350243
1760554949737081600,3.34908154296875,0.060572249862551684,-0.1213465251032263,0.06053882251698523
1760554949747085600,3.35908544921875,0.13523556891977787,-0.2654042098388076,0.07885671562645584
1760554949757090600,3.369090576171875,0.16060264988839626,-0.25508126100599765,0.1005471173763275
1760554949767094300,3.37909423828125,0.12935995488464833,-0.2122433322113007,0.16150047551095484
1760554949777099300,3.389099365234375,0.07464753696620464,-0.12094240128174423,0.16351656457372007
1760554949787103500,3.399103515625,0.036465982609987256,-0.04048683562390506,0.16599508351646364
1760554949797108500,3.4091083984375,-0.02014613144993782,0.027195027048140762,0.10998944744970648
1760554949807112400,3.419112548828125,-0.07304243985712527,0.15724011465273796,-0.010319039842672646
1760554949817117400,3.429117431640625,-0.048020811325311656,0.12396803271323442,-0.1332795394811779
1760554949827121400,3.439121337890625,0.014158873733878134,-0.024397286088392138,-0.15550916267428547
1760554949837126400,3.44912646484375,0.012993337085843085,-0.004858180620893836,-0.13648264637142418
1760554949847130600,3.459130615234375,-0.05848667576014995,0.13370039524175226,-0.08675477539990097
1760554949857135600,3.469135498046875,-0.11315291644930839,0.1900172526821494,-0.038472609724663195
1760554949867139300,3.479139404296875,-0.06656301470994949,0.12361878088414668,0.01168963407613337
1760554949877144600,3.48914453125,-0.0022778818041086194,0.015861366802826522,-0.059057205657102166
1760554949887148300,3.499148193359375,0.012578911066055297,-0.001880041592940688,-0.1070629655437544
1760554949897153300,3.5091533203125,-0.014100421544909477,0.023902999765425918,-0.10339739224091171
1760554949907157800,3.51915771484375,0.025877953100204465,0.007657967407256364,-0.15191154004111884
1760554949917161700,3.52916162109375,0.04146948998570442,-0.06309015096761286,-0.06908146380428225
1760554949927166700,3.539166748046875,0.0654910015642643,-0.10562427451014518,-0.06070471713580191
1760554949937170700,3.549170654296875,0.09293196619749068,-0.17248846412375568,-0.03980773078594357
1760554949947175700,3.55917578125,0.13842939652502537,-0.2087712721865624,0.07692249616086483
1760554949957180000,3.569179931640625,0.10863690032958984,-0.20787052395455538,0.14573036718815563
1760554949967185000,3.579184814453125,0.1398924548149109,-0.2194336090415716,0.1842789647584781
1760554949977188900,3.58918896484375,0.15641805768013,-0.23922639700919388,0.15513379002325237
1760554949987193900,3.59919384765625,0.14084405645132064,-0.23134134284779428,0.09025657297577708
1760554949997197800,3.60919775390625,0.07010989353656769,-0.12476239796131848,0.06300433584768325
1760554950007202800,3.619202880859375,0.040192309656739235,-0.05464695146679878,0.06554203763175756
1760554950017206800,3.629206787109375,0.005512625941634178,-0.011389262890070676,0.025432255159318445
1760554950027211800,3.639211669921875,0.0035872108370065686,0.020060645123571155,0.0035638664940372106
1760554950037215700,3.6492158203125,-0.05802899512052535,0.11995222120061516,0.026192791203036903
1760554950047220700,3.659220703125,-0.10972294200062752,0.22103812162876127,0.04779785275701433
1760554950057224700,3.669224609375,-0.15106500621438027,0.305061828096956,0.03972951445057988
1760554950067229700,3.679229736328125,-0.19938100109398363,0.33781609670743346,0.013826865300536156
1760554950077233700,3.689233642578125,-0.123814011195302,0.22506913071051238,0.03265679958537221
1760554950087239000,3.699239013671875,-0.09667933603227138,0.18111659173741937,0.03886781958732754
1760554950097243000,3.709242919921875,-0.02462473816871643,0.06963599241450429,0.08002342131827025
1760554950107247900,3.719247802734375,0.07622106989324093,-0.09917334480509161,0.16666001369860023
1760554950117251600,3.72925146484375,0.064200961753726,-0.08667319806367159,0.10092526650633662
1760554950127256600,3.739256591796875,0.064083472853899,-0.056375821086019275,0.0886702170997858
1760554950137260800,3.7492607421875,0.06167874979972839,-0.09062018212378024,0.05508377198148518
1760554950147265800,3.759265869140625,0.09282149156033992,-0.15820757144540548,-0.029679025883600114
1760554950157269800,3.769269775390625,0.11659808846712112,-0.19470467984601855,0.016424480578303337
1760554950167274800,3.779274658203125,0.08870704197883605,-0.13584770946875213,0.0743852693008259
1760554950177278700,3.78927880859375,0.028144144466519354,-0.03613353578522801,0.027793833191506565
1760554950187283700,3.79928369140625,0.06494096646606921,-0.10087181928604841,0.14727412603143603
1760554950197287700,3.80928759765625,0.06010463235080242,-0.06575827419832349,0.19598470971919596
1760554950207292700,3.819292724609375,0.021360183414816856,0.0045192309901118275,0.16058621021024883
1760554950217297000,3.829296875,-0.0005307458758354186,-0.007112462353706359,0.14122691828906536
1760554950227300600,3.839300537109375,-0.010646481698751448,0.018616291534155605,0.10621420322731137
1760554950237305600,3.8493056640625,0.04358195209503173,-0.06344298299327493,0.060626318137347694
1760554950247309600,3.8593095703125,0.03218728237748146,-0.0364729968726635,0.06988375663049519
1760554950257314600,3.869314453125,-0.05116553909182548,0.11649623552784323,0.1020343237267807
1760554950267318800,3.87931884765625,-0.0674035571873188,0.12949074165746569,0.17673475992400198
1760554950277323800,3.88932373046875,-0.07417641232311725,0.14011588830724359,0.15144567609503864
1760554950287327700,3.89932763671875,-0.08482990828454494,0.14219912432208656,0.08324965335577726
1760554950297332700,3.909332763671875,-0.0535784454524517,0.12207067465931176,0.09596570787020027
1760554950307336700,3.919336669921875,-0.058552726733684536,0.16767667992785573,0.0035918139468878504
1760554950317341700,3.929341796875,-0.09027765229642391,0.17536957251802085,0.060898705337941644
1760554950327346000,3.939345947265625,-0.04627893609404564,0.1172743802934885,0.14637067438568918
1760554950337351000,3.949350830078125,0.020823007798194883,0.014285130462050438,0.0610874328430742
1760554950347354600,3.959354736328125,0.10438801071345806,-0.14752806425988674,0.10480861074570566
1760554950357359600,3.969359619140625,0.13205927697122097,-0.18210560277476906,-0.011888079257681965
1760554950367363600,3.979363525390625,0.004857961425185203,-0.001346153911948204,0.007149141102284193
1760554950377368600,3.98936865234375,-0.06639350336194039,0.132905956928432,0.043915421833097934
1760554950387371800,3.999371826171875,-0.06991115609407425,0.1521682912811637,0.042666810011491176
1760554950397375700,4.009375732421875,-0.13063888877928256,0.22447934812381862,-0.037715763475373386
1760554950407380000,4.0193798828125,-0.10659574989080428,0.22443784706965086,-0.0867381165260449
1760554950417385000,4.029385009765625,-0.049043140110373494,0.16102204434424638,-0.030354513992369173
1760554950427388700,4.039388671875,-0.05408347236514091,0.14222586619853972,-0.07769468610975891
1760554950437393700,4.0493935546875,-0.019171148937940596,0.06357888433262705,-0.0114440983498469
1760554950447397600,4.059397705078125,-0.015623685589432716,0.09113324621245264,0.07574863007590174
1760554950457402600,4.069402587890625,-0.030154315245151518,0.061789224436879155,0.11916994824912398
1760554950467406800,4.07940673828125,0.08133855903744697,-0.07975465084686875,0.04270217358581722
1760554950477411800,4.089411865234375,0.09476385779976844,-0.1313978904530406,-0.0136435446228832
1760554950487415800,4.099415771484375,0.1658598397642374,-0.2458268181875348,0.062304370884783564
1760554950497420800,4.1094208984375,0.22324352271854875,-0.35043548591434953,-0.028067206772789358
1760554950507424800,4.1194248046875,0.21004677201509475,-0.3625355274222791,-0.0775488478982821
1760554950517429800,4.1294296875,0.18187573954164982,-0.27955533865764737,-0.15244842339679598
1760554950527433700,4.139433837890625,0.0635386984527111,-0.09149754948019981,-0.12013919514007866
1760554950537438700,4.149438720703125,-0.12457973487079142,0.19239727968648074,-0.03855217776689678
1760554950547442700,4.159442626953125,-0.2159486895352602,0.363704132810235,0.1085772425642237
1760554950557447700,4.16944775390625,-0.2577110249876976,0.4679616490118205,0.13994276023004204
1760554950567451600,4.17945166015625,-0.21406769809424875,0.4072515981137752,0.07395506119001656
1760554950577456600,4.18945654296875,-0.14459493341743945,0.2691200154915452,0.030136998784169554
1760554950587460900,4.1994609375,-0.15412322474122048,0.2613445591844618,0.05655479438211768
1760554950597465900,4.2094658203125,-0.21306641209721564,0.39701998082622886,0.08984032032508403
1760554950607469800,4.2194697265625,-0.2467097385019064,0.4296225660063326,0.08495547089297324
1760554950617474800,4.229474853515625,-0.1817974136084318,0.35341157911568877,-0.04017747741378844
1760554950627478800,4.239478759765625,-0.08899462674856186,0.18752368230074642,-0.13781838848721234
1760554950637483800,4.24948388671875,0.0789279907643795,-0.08228256188929081,0.06809033387508243
1760554950647487700,4.25948779296875,0.044404958915710446,-0.02418985388278961,-0.006813369809277355
1760554950657492700,4.26949267578125,0.05486030195653438,-0.014843202736228703,-0.018075407856795934
1760554950667496700,4.27949658203125,0.09381400972902774,-0.08352686286196112,0.13855105014331637
1760554950677501700,4.289501708984375,0.07984335204362869,-0.06701689595729113,0.1865841181620024
1760554950687505700,4.299505615234375,0.1715583436667919,-0.2032160492122173,0.21136623884951694
1760554950697510000,4.309510009765625,0.30961832235753534,-0.41590427564680577,0.23917768076295032
1760554950707515000,4.319514892578125,0.2879167781591415,-0.4222822862461209,0.1262179670644924
1760554950717518800,4.329518798828125,0.20319383738040922,-0.2758776730582118,-0.03438435403034091
1760554950727523800,4.33952392578125,0.19531974300444124,-0.27786943139731884,0.033274547891225664
1760554950737527800,4.34952783203125,0.11485562871396542,-0.14386194296777247,-0.04677598062967881
1760554950747532800,4.35953271484375,0.07665653870105743,-0.09480798920243978,-0.07252574077295139
1760554950757536800,4.369536865234375,0.03521101411283016,-0.04592851522117853,0.06747733480958268
1760554950767543800,4.379543701171875,-0.12417992189824581,0.1817109043687582,0.04406670340467244
1760554950777547800,4.3895478515625,-0.08620002759397029,0.14878566310554742,0.005065302299242467
1760554950787552800,4.399552734375,-0.1438350549608469,0.2431122985318303,-0.08533767514359206
1760554950797556700,4.409556640625,0.8004577197402715,-1.1666019391790032,-0.3376199896134436
1760554950807561700,4.419561767578125,0.14816694668531416,-0.2645762345820665,-0.4084570283807814
1760554950817565700,4.429565673828125,-0.15326573112905026,0.2553749832555651,-0.007389233468472957
1760554950827569700,4.439569580078125,0.09245499633550644,-0.10128273817449808,0.16145459054261446
1760554950837574700,4.44957470703125,0.1054927570849657,-0.12918605962246657,-0.10874810561910271
1760554950847579600,4.45957958984375,-0.1085644196152687,0.202116271276772,0.2867270934505388
1760554950857583900,4.469583984375,0.05813946975767612,-0.07740881837308407,-0.140702090697363
1760554950867587800,4.479587890625,0.003167524120211601,-0.004144260197877884,0.04629698320738971
1760554950877592800,4.4895927734375,-0.03214928845465183,0.03661357438713312,-0.025973741624876857
1760554950887596800,4.4995966796875,0.00935059666931629,-0.007637947532534599,-0.13379092306941748
1760554950897601800,4.509601806640625,0.02838087583184242,-0.02461129416525364,-0.21586751405782997
1760554950907608600,4.519608642578125,0.012114216163754462,-0.001301145726442337,-0.14051884308494628
1760554950917613600,4.529613525390625,0.039422494328022,-0.056321314419806,-0.08007580909263343
1760554950927617500,4.539617431640625,0.03214052062630653,-0.03342471521794796,0.1086238216523081
1760554950937622500,4.54962255859375,-0.011716156756877899,0.0024018004447221753,0.0548908066926524
1760554950947626200,4.559626220703125,0.021202947026491163,-0.02697188581675291,0.0053622211528941985
1760554950957631200,4.56963134765625,0.022546178328990935,0.00024199206233024596,0.102548045402579
1760554950967635500,4.579635498046875,0.004072364005446433,0.02868804208487272,0.19071228574160484
1760554950977640400,4.589640380859375,-0.003985854765772819,0.03802431796789169,0.22439857450518755
1760554950987644400,4.59964453125,0.018703531426191328,-0.02106149272918701,0.11337119884248822
1760554950997649400,4.6096494140625,0.01021159741282463,0.0005582184046506881,0.08472889559548348
1760554951007653400,4.6196533203125,0.01744388675391674,0.0054638183638453484,0.10183006985895335
1760554951017658400,4.629658447265625,0.022619243565201758,0.004970189628005027,0.11545067199766636
1760554951027662600,4.63966259765625,0.030365327647328376,-0.011450199297070503,0.04337934219501912
1760554951037667600,4.64966748046875,0.01971300072968006,-0.0026060908451676365,0.04392108438890427
1760554951047671600,4.659671630859375,0.02296118887066841,0.017016308991611002,0.1217799480844289
1760554951057676500,4.669676513671875,0.02336509349644184,0.009085223731398582,0.09708020845074206
1760554951067680300,4.67968017578125,0.011261983248591423,-0.00016366612911224363,0.06991751276962459
1760554951077685200,4.689685302734375,0.0012508768439292908,0.014752747973799704,0.11927720801588147
1760554951087689500,4.699689453125,-0.007913841864466666,0.026446108376979825,0.12980959834828973
1760554951097694500,4.709694580078125,0.002104278802871704,0.017960311843454837,0.0938549262613058
1760554951107698400,4.719698486328125,-0.016544892087578773,0.027615736678242683,0.10799809096939861
1760554951117703400,4.729703369140625,0.022515198668837545,-0.012857435746490955,0.09209372527506202
1760554951127707400,4.739707275390625,0.003987608331441879,-0.005986380933225155,0.021966551810130474
1760554951137712400,4.74971240234375,0.005566401955485344,-0.012875263664126396,0.0032476036190986633
1760554951147716600,4.759716552734375,0.012129998254776,-0.011055939282476902,0.011072780819423497
1760554951157721600,4.7697216796875,0.0142214175760746,-0.009004559710621833,0.02619743084553629
1760554951167725600,4.7797255859375,-0.0076338558793067925,0.010017536145448685,0.11067735664863139
1760554951177730600,4.78973046875,0.01196750116944313,0.018535481382906435,0.11736362947952002
1760554951187734300,4.799734375,0.014172902259230612,0.009423077383637428,0.06830762988757341
1760554951197739300,4.8097392578125,0.01609539475440979,0.000003507131338119507,0.05887220447901636
1760554951207743500,4.819743408203125,0.010130348870158195,0.006263736569881439,0.0295418824352324
1760554951217747500,4.82974755859375,0.008032499808073043,-0.003051496525108814,-0.012271671747788785
1760554951227752400,4.83975244140625,0.018805238234996795,0.007333996149897575,0.04143971590194851
1760554951237756400,4.84975634765625,0.016908464702963828,0.022661621402204034,0.07557458868324757
1760554951247761400,4.859761474609375,0.01963935097157955,-0.0034098084434866904,0.027159480810724196
1760554951257765600,4.869765625,-0.008870119675993918,-0.001364274090528488,0.02654591548964381
1760554951267770600,4.8797705078125,0.0060071314603090285,0.01598725820481777,0.06057699910290539
1760554951277774600,4.889774658203125,0.004753332006931304,0.013667290824651717,0.06202891494426876
1760554951287779600,4.899779541015625,0.008939677780866623,-0.006298807883262634,0.09455576800704002
1760554951297783300,4.909783203125,0.032817981496453284,-0.03884937061518431,0.10188625702559947
1760554951307788300,4.919788330078125,0.06842413240671158,-0.08530278649330139,-0.005599463974870741
1760554951317792500,4.92979248046875,-0.006021744507551193,0.0009314356312155723,0.028070567773655054
1760554951327797500,4.939797607421875,0.017879355561733246,-0.011456629037857055,0.06290240984316915
1760554951337801500,4.949801513671875,0.031084874093532562,-0.029838965685665606,0.1437149357125163
1760554951347806500,4.959806396484375,0.048396074378490445,-0.037222061674296855,0.05567490627504885
1760554951357810400,4.969810546875,0.007860065850615501,-0.008469137659668922,-0.11159169501457362
1760554951367815400,4.9798154296875,0.04239245004951954,-0.059846858197450635,-0.12146901897173375
1760554951377819600,4.989819580078125,-0.022507015362381935,0.06204904441684484,0.20628340089358388
1760554951387824600,4.99982470703125,-0.03445288922190666,0.09537176056504248,0.19980587544254957
1760554951397828400,5.009828369140625,-0.0060690907806158064,0.01816898615807295,0.06442950981259346
1760554951407833600,5.01983349609375,0.026792145335674283,-0.006266366918385028,0.0665819751387462
1760554951417837300,5.02983740234375,0.008638649007678032,-0.005762801310420036,0.03564023584295064
1760554951427842300,5.03984228515625,0.04681669623255729,-0.03671849606633186,-0.009995543509349227
1760554951437846500,5.049846435546875,0.04589490521252155,-0.04909165542721748,-0.05142444575633853
1760554951447851500,5.0598515625,0.06085106680393219,-0.07278291213810444,-0.06920892610885203
1760554951457855500,5.06985546875,0.07957505649626255,-0.08734159884452819,0.06621971769761294
1760554951467860500,5.079860595703125,0.23943010288774966,-0.3503501457184553,0.22680136133059858
1760554951477864400,5.089864501953125,0.4338561119228601,-0.6067281685367226,0.23868344923891124
1760554951487869400,5.099869384765625,0.1460872178018093,-0.21397563589662313,0.21329192794878035
1760554951497873700,5.109873779296875,-0.1319347738087177,0.19898469525277612,0.3503258515274152
1760554951507878700,5.119878662109375,-0.12923603624403476,0.1940226889312267,0.2759569488395005
1760554951517882400,5.12988232421875,-0.043977673414349557,0.06929360871762037,0.1364003018502146
1760554951527887400,5.139887451171875,-0.036490532529354094,0.06910305458158254,0.10843666504975408
1760554951537891300,5.149891357421875,-0.07541326064169407,0.13359452371448277,0.1432627349656075
1760554951547896300,5.159896240234375,-0.08097147929072379,0.13091156824082134,0.10762987871151417
1760554951557900500,5.169900634765625,-0.13179331951141357,0.2011962338224053,0.13670969659294932
1760554951567905500,5.179905517578125,-0.23683891735076903,0.35227468404024836,0.12594744302742183
1760554951577909500,5.189909423828125,-0.216579388654232,0.3309706147268414,0.10052932599131018
1760554951587914500,5.19991455078125,-0.0964303297072649,0.1685696832448244,0.1178002673311159
1760554951597918500,5.20991845703125,-0.0099035543769598,0.01732259846180677,0.030104667417146264
1760554951607923500,5.21992333984375,0.0569552284091711,-0.08008008340895176,-0.00841357154753059
1760554951617927400,5.229927490234375,0.13315700908005237,-0.2280208201229572,-0.1279765742348507
1760554951627931400,5.239931396484375,0.27129531370401383,-0.42397447711676356,-0.24305998382270336
1760554951637936400,5.249936279296875,0.4203197540014982,-0.6219619780257344,-0.2474990257160738
1760554951647940400,5.2599404296875,0.4637643434524536,-0.709618049646914,-0.31278244894426316
1760554951657945300,5.2699453125,0.4397673817932605,-0.6762662535347044,-0.2522825701981783
1760554951667949300,5.27994921875,0.32446693192124365,-0.5020483352698385,-0.07199735125098378
1760554951677954600,5.28995458984375,0.14457389062941073,-0.19878435037508604,0.06974285032246262
1760554951687958500,5.29995849609375,0.03457973047196865,-0.07274944825991987,0.06422167574819176
1760554951697963500,5.309963623046875,-0.036820787397027016,0.05162687299326062,0.07515033538918942
1760554951707967500,5.319967529296875,-0.10362520964741706,0.16537629403099416,0.10620605645347386
1760554951717972500,5.329972412109375,-0.2339431959092617,0.37429581558182834,0.10237707274984567
1760554951727976400,5.3399765625,-0.3365074983268976,0.5456846479006111,0.07450027398262173
1760554951737981400,5.3499814453125,-0.33803485402464867,0.5460343381211161,0.06067859631385654
1760554951747985400,5.3599853515625,-0.37528760309815407,0.608626111112535,0.019876191934756933
1760554951757990400,5.369990478515625,-0.41711598952412604,0.7249655486434697,0.04603617684673518
1760554951767994400,5.379994384765625,-0.41037586761415,0.7037132095173001,0.1558738312682137
1760554951777999400,5.389999267578125,-0.32868951805233954,0.5600258924640715,0.2373193943440914
1760554951788003300,5.40000341796875,-0.16677753913104534,0.30889307682290673,0.21100798173006624
1760554951798008300,5.41000830078125,0.0028676643908023833,0.027767566239088774,0.14844612895287573
1760554951808012500,5.420012451171875,0.07600012061893939,-0.11165449458509683,0.06949848363995552
1760554951818017500,5.430017578125,0.16180618045926093,-0.22012466004565356,-0.03675846275053918
1760554951828021500,5.440021484375,0.2906763060003519,-0.44882630203962326,-0.19291122055798768
1760554951838026500,5.450026611328125,0.3678682667523622,-0.5756869874544441,-0.1526592531358823
1760554951848030500,5.460030517578125,0.33490707739293574,-0.5312365819618106,-0.09148213271535932
1760554951858035500,5.470035400390625,0.28950609317719933,-0.4867345924124121,-0.02010974496230483
1760554951868039400,5.480039306640625,0.2397936755031347,-0.3789665838718414,0.11312409221362323
1760554951878044400,5.49004443359375,0.16929624395370482,-0.2544983465515077,0.1316732367957011
1760554951888048400,5.50004833984375,0.16949790400564668,-0.24326705070212482,0.19896043759435414
1760554951898053400,5.510053466796875,0.05719838951528072,-0.10548808090984821,0.12711677906773983
1760554951908054500,5.520054443359375,-0.027654899644851683,0.054856356433779,0.02300886393729597
1760554951918059500,5.5300595703125,-0.10059329460561275,0.16427987709641456,0.07022862454541028
1760554951928063700,5.540063720703125,-0.21133213565051553,0.36899434817284343,0.047590785877592856
1760554951938068700,5.55006884765625,-0.3974818992495537,0.6262992765776813,0.00157039112187922
1760554951948072700,5.56007275390625,-0.4211287322968244,0.6945325625874101,0.0995270170809701
1760554951958077700,5.57007763671875,-0.34916590436995026,0.5874992980621755,0.10613417852735146
1760554951968081700,5.58008154296875,-0.2994020487695932,0.4979800629176199,0.1680785204607062
1760554951978086700,5.590086669921875,-0.2625245627492666,0.44757937071844933,0.20238982752114534
1760554951988090600,5.600090576171875,-0.18109890995025635,0.31913594615682955,0.21635964495632795
1760554951998095600,5.610095703125,-0.08002046217620372,0.1379794608004391,0.26081806935863566
1760554952008099600,5.620099609375,-0.03139467069506645,0.05870221820697188,0.23609419993069022
1760554952018103600,5.630103515625,-0.02394552373290062,0.050476095522940155,0.16270376861980185
1760554952028108500,5.640108642578125,-0.013405425018072127,0.043782735364139076,0.0620646255784668
1760554952038112800,5.65011279296875,0.0482674795627594,-0.021687807933986187,0.026832513878680762
1760554952048117800,5.66011767578125,0.04694646009206772,-0.03676642686128616,0.01149358178107068
1760554952058121700,5.670121826171875,0.03950725000202655,-0.022784809390455484,0.010063165385462343
1760554952068126700,5.680126708984375,0.04807517186105251,-0.04515986893624067,0.04581836937759071
1760554952078130700,5.690130615234375,0.007581248909235,-0.0034707448504865167,0.09823622835176064
1760554952088135700,5.7001357421875,-0.041808512681722636,0.09037439066916704,0.1417376808227971
1760554952098139600,5.7101396484375,-0.04481880041360855,0.10125468112379311,0.2385657959423028
1760554952108144600,5.72014453125,-0.024695465317368506,0.05688391673862934,0.10053164581255987
1760554952118148600,5.730148681640625,-0.0021937106519937513,0.06412818877846002,-0.09004698534570633
1760554952128153600,5.740153564453125,0.010067220506072044,0.00736906746327877,-0.15829203485846519
1760554952138157600,5.750157470703125,0.0113718733638525,0.03399491632133722,-0.2544553293936886
1760554952148162600,5.76016259765625,-0.049439445951581,0.08942337355464697,-0.2128679851819761
1760554952158166500,5.77016650390625,-0.03625380116403103,0.06752396869659423,-0.10748573926677926
1760554952168171500,5.780171630859375,0.518674914291501,-0.9195511321544647,-0.16680358688775448
1760554952178175700,5.79017578125,1.328828098616004,-1.630224243812263,-0.7540938087765127
1760554952188180700,5.8001806640625,-0.4833616088479757,0.5833937624394894,0.06321454453226179
1760554952198184700,5.810184814453125,-0.0548597174346447,0.02988543517589569,0.3044454680305905
1760554952208189700,5.820189697265625,0.23398060531020162,-0.23074761473834512,0.0684962295285426
1760554952218193400,5.830193359375,-0.059905310386419296,0.05560118345171213,0.00775724479695782
1760554952228198700,5.84019873046875,0.024202713364362714,-0.01882189710885286,0.2513003176951781
1760554952238202600,5.85020263671875,0.03136719816625118,-0.031149463762342927,0.1389911403273232
1760554952248207600,5.86020751953125,0.0003863689690828323,-0.013141513384878635,0.012686901485174894
1760554952258211600,5.870211669921875,0.019712416207790375,-0.009195698368549346,-0.010993760766461491
1760554952268216600,5.880216552734375,0.01229249534010887,-0.003488718898594379,0.001466894214786589
1760554952278220500,5.890220458984375,0.024957331123948094,-0.013824819473922252,-0.06679474110659211
1760554952288225500,5.9002255859375,0.020606734699010847,-0.007478957578539848,-0.04805928017217666
1760554952298229800,5.910229736328125,-0.024786650732159615,0.03296411196887493,0.049374326559808106
1760554952308234800,5.92023486328125,-0.013653846821188927,0.02327653843015432,0.07989298160532489
1760554952318238700,5.93023876953125,0.007127659922838211,-0.0005044423907995223,0.03762881584428251
1760554952328243700,5.94024365234375,0.006641337710618972,0.004349719642102718,0.026461890468001365
1760554952338247400,5.950247314453125,0.011737199544906615,0.01741349161565304,0.055561801289394495
1760554952348252400,5.96025244140625,0.007122983747720718,-0.0008232990816235542,0.07316506158979609
1760554952358256600,5.970256591796875,0.01856149260699749,-0.005442775575816631,0.042572665454633535
1760554952368261600,5.98026171875,0.05238426723182201,-0.03865793969631195,0.02000979171916842
1760554952378265600,5.990265625,0.05629413415193557,-0.05586188021451235,0.013841533146705477
1760554952388270600,6.0002705078125,-0.010932312902808189,0.0026247955456376072,0.062407758194021876
1760554952398274600,6.010274658203125,0.05124035789370537,-0.03988514340370893,0.004457125539332628
1760554952408279600,6.020279541015625,0.0075134443700313564,0.0054375148788094515,0.09664041052768006
1760554952418283800,6.03028369140625,-0.009150105661153794,0.016915186704695225,0.08807139269011095
1760554952428287500,6.04028759765625,0.035278234130144116,-0.042100481365621084,-0.08611689762147143
1760554952438292700,6.050292724609375,0.09247311651408671,-0.11304127276837825,-0.15509303788775577
1760554952448297700,6.060297607421875,0.29535306563973424,-0.44963264998644586,-0.2217216286472045
1760554952458301400,6.070301513671875,0.5761211410880088,-0.8353153903707862,-0.3793395819026977
1760554952468306400,6.080306396484375,0.5667477480649947,-0.8332304007902741,-0.4359714235763997
1760554952478310700,6.090310546875,0.543082210317254,-0.7869087945982813,-0.21649267848515882
1760554952488314600,6.100314697265625,0.46480713050365446,-0.6807599116921424,-0.06905631109671667
1760554952498319600,6.110319580078125,0.3929910175710916,-0.5907458787679671,0.054879006657004355
1760554952508323600,6.120323486328125,0.11989654549062251,-0.18163900817632675,0.3333036242516711
1760554952518328600,6.13032861328125,-0.1379834063231945,0.180328363969177,0.1384079153455794
1760554952528332800,6.140332763671875,-0.0385597400188446,0.04028963255137205,-0.1412713236863725
1760554952538337800,6.150337890625,0.039329555347561836,-0.04129208759218454,-0.16241170860435813
1760554952548341500,6.160341552734375,-0.052065118280053134,0.11238792342618108,-0.2159609279623255
1760554952558346500,6.170346435546875,-0.11625614316165446,0.2363958497583866,-0.12155636846162378
1760554952568350500,6.1803505859375,-0.1264198097795248,0.22773162791803478,-0.07233703153412789
1760554952578355500,6.19035546875,-0.07308277186751365,0.14005217542126774,-0.16473017814718185
1760554952588359700,6.200359619140625,-0.059766778698563575,0.11835428448468446,-0.09564688771199434
1760554952598364700,6.21036474609375,-0.09392214627861976,0.21291867418959737,-0.016784765258058904
1760554952608368600,6.22036865234375,-0.037193127840757366,0.11474135468453169,-0.009547251752577722
1760554952618373600,6.23037353515625,0.05499065033793449,-0.05695625132247805,0.049619661356694995
1760554952628377600,6.240377685546875,0.30168109961748124,-0.49686464902162547,-0.17428071783538907
1760554952638382600,6.250382568359375,0.5568149675935506,-0.9308153073601424,-0.1572741265201941
1760554952648386800,6.26038671875,0.7386024443298578,-1.2360916549906134,-0.028749489948526025
1760554952658391800,6.270391845703125,0.7295423550397158,-1.2275649419248102,0.022062815258838235
1760554952668395500,6.2803955078125,0.7064145774304866,-1.1561737764060496,0.18372096554953604
1760554952678400500,6.290400390625,0.6542027441561221,-1.0541888813115656,0.22839575438257306
1760554952688404500,6.300404541015625,0.5765934347748756,-0.9683511111587285,0.14192918480690567
1760554952698409500,6.310409423828125,0.4987456404626369,-0.8484777273479849,0.15474767678249626
1760554952708413700,6.32041357421875,0.30899463750123973,-0.5042775556266308,0.11926953616607934
1760554952718418700,6.330418701171875,0.0934364085882902,-0.16007007738165557,0.05063983471728861
1760554952728422700,6.340422607421875,-0.22064532291889188,0.35038141763955355,0.1155873039893806
1760554952738427600,6.350427734375,-0.3838596166104078,0.6439186660289764,0.15844985576868056
1760554952748431600,6.360431640625,-0.44017771615982054,0.7352941234994679,0.15084818512592463
1760554952758436600,6.3704365234375,-0.4742021508365869,0.8237611461773514,0.16539565631859005
1760554952768440800,6.38044091796875,-0.5020476046174764,0.9618804538398981,0.3587441357826814
1760554952778445800,6.39044580078125,-0.7150146479934454,1.2943620576515793,0.4286336280342191
1760554952788449500,6.400449462890625,-0.6150578977257013,1.0588224593963473,0.4476662818169221
1760554952798454500,6.41045458984375,-0.2817360436975956,0.8838795147925614,0.4162345305144787
1760554952808458500,6.42045849609375,-0.1296124683409929,0.6937990606810898,0.4499742664983496
1760554952818463500,6.43046337890625,-0.0529991842597723,0.11871212147902696,0.10977233410030603
1760554952828467700,6.4404677734375,-0.03992401410937309,0.062092134639900175,0.09670147479884326
1760554952838472700,6.45047265625,-0.04755319381356239,0.018206473190826362,0.11823814729172735
1760554952848476700,6.4604765625,-0.0550859274059534,0.09944850848466158,0.07743314909674227
1760554952858481700,6.470481689453125,-0.028226562052965164,0.09730902137109078,0.10912501264009625
1760554952868485600,6.480485595703125,-0.007062193471193313,0.009693071697745472,0.08400553149068728
1760554952878490600,6.49049072265625,0.05037701906263828,-0.20538212293861433,-0.1620617991881445
1760554952888494800,6.500494873046875,0.048583705905079835,-0.22174153892407192,-0.14861653535002842
1760554952898499800,6.510499755859375,-0.030190555602312086,0.05680034837471321,-0.08327782000433653
1760554952908503300,6.52050341796875,-0.12714403240084649,0.3976691289173439,-0.06532410229844972
1760554952918508300,6.53050830078125,-0.17687573929727077,0.5799503439873457,-0.03761316161742434
1760554952928512300,6.54051220703125,-0.13158581424057483,0.471089973632805,-0.06708619833383708
1760554952938517200,6.550517333984375,-0.05284545500278472,0.20211868242956696,-0.159658847965952
1760554952948521500,6.560521484375,-0.02702712313532829,0.123566904566437,-0.04399762022383511
1760554952958525400,6.570525390625,-0.03824000654518604,0.1685447314666584,-0.07640945033850148
1760554952968530400,6.580530517578125,-0.0856815566778183,0.31220673141553995,-0.1066502017580904
1760554952978534100,6.5905341796875,-0.07250935589373111,0.2994490297164768,-0.10069038003822788
1760554952988539100,6.6005390625,-0.037220015847682954,0.162438012089394,-0.05502261637877673
1760554952998543400,6.61054345703125,-0.023833295530080793,0.1072776312077418,-0.05158595646098256
1760554953008548400,6.62054833984375,0.01861643766462803,-0.06743815357666462,-0.008483403647039086
1760554953018552300,6.63055224609375,0.07653846527934074,-0.30798191679473963,-0.04689414538294077
1760554953028557300,6.640557373046875,0.09615501989722251,-0.35569505041036753,-0.024068492525443432
1760554953038561300,6.650561279296875,0.06338906084895134,-0.30303810371700673,-0.0823989730768837
1760554953048566300,6.660566162109375,0.08509469670057296,-0.2951703660165891,-0.05600832121418789
1760554953058570500,6.670570556640625,0.08699965353906154,-0.36807858503479507,-0.1192271765953861
1760554953068575500,6.680575439453125,0.1130085395425558,-0.4685810595517978,-0.1439937891865149
1760554953078579500,6.690579345703125,0.09201894300580024,-0.4046918306283653,-0.07226679757582023
1760554953088584400,6.70058447265625,0.04373509683012962,-0.16642306313756852,0.004461509453505277
1760554953098588200,6.710588134765625,-0.011669395005702972,0.042603024060279125,0.029518209298700093
1760554953108593200,6.72059326171875,-0.0625105244487524,0.22879428871348498,0.16665413194708525
1760554953118597400,6.730597412109375,-0.03839899649918079,0.2008402599915862,0.1775311527323909
1760554953128602400,6.740602294921875,0.02852642178237438,-0.06483852900490164,0.2226351998281665
1760554953138606300,6.7506064453125,0.053631052422523494,-0.16881832424364984,0.24465899825086815
1760554953148611300,6.760611328125,0.05310556724369526,-0.273576848769933,0.23585381530355662
1760554953158615300,6.770615234375,0.0774812990874052,-0.31244558167271314,0.3835713011883199
1760554953168620300,6.780620361328125,0.13095745320916174,-0.5050961054679006,0.35696328024789686
1760554953178624500,6.79062451171875,0.15752514213919638,-0.6828905670452863,0.39720059809014197
1760554953188629500,6.80062939453125,0.18578677550554273,-0.8580464968126267,0.5027897282216698
1760554953198633500,6.810633544921875,0.20174305405020712,-0.9044654258992523,0.43227498021125793
1760554953208638500,6.820638427734375,0.175317988461256,-0.8244729477085173,0.4072473968626931
1760554953218642200,6.83064208984375,0.10692249762713908,-0.4335123399864882,0.22905717743337153
1760554953228647200,6.840647216796875,-0.0042108956933021545,0.0010291238520294427,0.11108406515284441
1760554953238651400,6.8506513671875,-0.029213819524645804,0.03807210263237357,0.03017420268913265
1760554953248656400,6.860656494140625,-0.05901859067976475,-0.4099854069918394,0.06103551542616915
1760554953258660400,6.870660400390625,-0.09528174419403075,0.1164446514710784,0.016558550720172933
1760554953268665300,6.880665283203125,-0.027336335214972494,-0.16662775539681315,0.13645934769422746
1760554953278669300,6.89066943359375,0.04096212498545646,-0.45571430798768997,0.3273963364366442
1760554953288674300,6.90067431640625,0.0947568435370922,-0.5905512329787016,0.2954344603128731
1760554953298678300,6.91067822265625,0.07680851439237595,-0.9226198720753193,0.43055590133368965
1760554953308683500,6.92068359375,0.05418459465205669,-0.6982891386419534,0.34733609512690455
1760554953318687500,6.9306875,0.2621551449149847,-0.6568421527490019,0.3309340090434998
1760554953328692500,6.9406923828125,0.11435177084505557,-0.8037285581044852,0.36599648153111336
1760554953338696200,6.9506962890625,0.21636545364260673,-0.9421662840664387,0.2985137764266692
1760554953348701200,6.960701171875,0.24971418101489543,-1.0345680889099835,0.31124256255850197
1760554953358705400,6.970705322265625,0.11043021348714828,-0.8892429415218531,0.23371336920876054
1760554953368710400,6.98071044921875,0.12298925080895423,-0.9645284841306507,0.056033437389135354
1760554953378714400,6.99071435546875,0.11775076563358307,-1.0486806392841042,0.07471943315863609
1760554953388719400,7.00071923828125,0.026074352455139158,-1.1623133020743728,0.16329634595178066
1760554953398723300,7.010723388671875,0.14423779054284094,-1.2806469821624458,0.09925682183746248
1760554953408728300,7.020728271484375,-0.49382981137037274,-1.4382422669284045,0.2447217430224642
1760554953418732300,7.030732177734375,-1.3894944565027951,-1.0990899531811475,0.4201986849050969
1760554953428737300,7.0407373046875,1.3515408656835555,-0.8612082487791776,0.11873345652800053
1760554953438741500,7.050741455078125,-0.932542131152749,7.376872584071755,1.5517134555466472
1760554953448746500,7.06074658203125,0.013219547057151794,27.19254984437227,3.7759935794577
1760554953458750200,7.070750244140625,0.2220522671073675,-8.81672301684916,-1.816142098351568
1760554953468755200,7.080755126953125,-0.2330845332533121,-2.984720744431019,-0.9821430512763559
1760554953478759200,7.09075927734375,0.24674773242473602,-3.6845354852050543,-1.5219412714868783
1760554953488764200,7.10076416015625,0.08815291522741317,-2.7678280520439147,-1.0619722286641597
1760554953498768400,7.110768310546875,-0.013493687823414802,-1.5596638300292194,-3.0505054682448502
1760554953508773400,7.1207734375,-0.0286257905036211,-1.1142780238322914,-3.355330126585066
1760554953518777300,7.13077734375,0.1745990265369415,-1.293299689117074,1.9890471804521976
1760554953528782300,7.1407822265625,-0.11399521249234676,-1.194592354388535,0.4617018579646945
1760554953538786300,7.150786376953125,-0.11083236454725265,7.973418673551082,-1.5582840661086141
1760554953548791300,7.160791259765625,0.09368249230384826,-0.563078996424377,0.831834708648175
1760554953558795500,7.17079541015625,0.1329687930315733,-2.914198762962222,0.7129387915674597
1760554953568800500,7.180800537109375,-0.004804769933223724,-1.10324897255674,-0.025314693194255233
1760554953578804200,7.19080419921875,-0.0724924047589302,3.553345392283797,-1.0896011170849202
1760554953588809200,7.200809326171875,0.018570260435342788,-0.885746331577748,0.22312581462301312
1760554953598813200,7.210813232421875,0.01974924108684063,-0.849351806768775,0.004068418482691049
1760554953608818200,7.220818115234375,-0.023576690420508382,0.8085580240875482,-0.6003818682499229
1760554953618822400,7.230822509765625,0.0071294134885072705,-0.14196224682629108,-0.14856595594026148
1760554953628827400,7.240827392578125,0.01903553985953331,0.047558162249624725,-0.12667411333415657
1760554953638831400,7.250831298828125,-0.0047404725253582,0.04645911496654152,-0.017069171690009533
1760554953648835300,7.26083544921875,-0.006152677410840988,0.04384527920633554,0.005395867694169282
1760554953658840300,7.27084033203125,-0.006687514939904213,0.05970248129069805,0.011900646478310227
1760554953668844300,7.28084423828125,-0.013144143733382223,0.07134528055042028,0.008301343344710766
1760554953678849300,7.290849365234375,-0.007882277682423592,0.0009353811539709567,-0.13580613534934818
1760554953688853200,7.300853271484375,-0.03720540280044079,0.061939592693001026,-0.18640804920904339
1760554953698858200,7.310858154296875,-0.11658289089798926,0.33615926941111685,-0.09925251098852604
1760554953708862200,7.3208623046875,-0.11614800661206244,0.4222957302495837,-0.0540712339380756
1760554953718867200,7.3308671875,-0.0785702633678913,0.2926058127582073,0.06072163173798471
1760554953728871400,7.340871337890625,-0.047882864159345624,0.09885448811426759,0.0794823001788929
1760554953738876400,7.35087646484375,0.006223989081382751,-0.06055602938011288,0.11897778667788952
1760554953748880400,7.36088037109375,0.03140051591396332,-0.10537044587954879,0.19650124440658837
1760554953758885400,7.370885498046875,0.00003156418204307556,-0.02670490544363856,0.2270040442958474
1760554953768889300,7.380889404296875,-0.05832534771859645,0.15864026377424598,0.2520301298070699
1760554953778894300,7.390894287109375,-0.11871756483912467,0.3693661040946841,0.2528884271368384
1760554953788898300,7.400898193359375,-0.0819774414628744,0.24089213826432823,0.2924282277015969
1760554953798903300,7.4109033203125,-0.009893617504835129,0.01842500674575567,0.3805192566739395
1760554953808907300,7.4209072265625,0.07562602660953999,-0.18037644089460372,0.43464934465978294
1760554953818912300,7.430912353515625,0.15239771612286568,-0.4611867480494082,0.46909810569584365
1760554953828916200,7.440916259765625,0.18483342030346392,-0.5643668442778289,0.4684513687575236
1760554953838921200,7.450921142578125,0.15963585068285463,-0.5514119395062327,0.38352790043801066
1760554953848925400,7.460925537109375,0.09713877023756504,-0.3757644268296659,0.26680074223112316
1760554953858930400,7.470930419921875,0.03009586305618286,-0.15659107615947723,0.17841076684482396
1760554953868934400,7.480934326171875,-0.022258593559265134,-0.017246318355202673,0.10863971334118395
1760554953878939400,7.490939453125,0.02258651033937931,-0.11742109528779983,0.10454108238331973
1760554953888943400,7.500943359375,0.06809855371415614,-0.24887495371177792,0.07471979848481715
1760554953898948400,7.5109482421875,0.07748305265307426,-0.29833471179902554,0.020329379062354564
1760554953908952800,7.520952880859375,0.02787467987537384,-0.16988237327858804,-0.03841956436317414
1760554953918957800,7.530957763671875,-0.038354572835564614,0.05256546901762485,-0.04335906659197062
1760554953928961800,7.5409619140625,-0.03772621180415153,0.11106953430399298,0.01987009098753333
1760554953938966800,7.550966796875,-0.021870471024513245,0.015374533133953809,0.11316990411672741
1760554953948970800,7.560970703125,0.01538344709277153,-0.06845628111064433,0.17398937020599842
1760554953958975700,7.570975830078125,0.045722471255064005,-0.15263517814055083,0.15668777799960226
1760554953968979700,7.580979736328125,0.031046295648813244,-0.14992650370374322,0.08283694436904042
1760554953978984700,7.590984619140625,-0.00916062705516815,-0.04798910101279616,0.07427453893534838
1760554953988988700,7.60098876953125,-0.004823474633693695,-0.02714417364373803,0.05147979267276823
1760554953998993700,7.61099365234375,0.007290741530060768,-0.07174348608776926,0.04257555153146386
1760554954008997600,7.62099755859375,0.00512041175365448,-0.10395312642753124,0.051620443252474064
1760554954019002600,7.631002685546875,0.010389292067289353,-0.08140124901011586,0.01651307217720896
1760554954029006600,7.641006591796875,-0.0176589908093214,-0.02685045139417052,-0.01303589758593589
1760554954039011800,7.65101171875,-0.04649287110567093,0.08090762027427553,-0.029984109777398404
1760554954049015800,7.661015869140625,-0.0630681583315134,0.19976780845448375,-0.028760961190611122
1760554954059020800,7.671020751953125,-0.0985521441668272,0.29845103165507314,-0.03387169180046767
1760554954069024800,7.681024658203125,-0.12017360886633395,0.37773748046830297,-0.0324137115444988
1760554954079029800,7.69102978515625,-0.1190647708415985,0.33830972544327376,-0.0023083134749904274
1760554954089033700,7.70103369140625,-0.1059065985828638,0.24479879031404853,0.05271207441408187
1760554954099038700,7.711038818359375,-0.06692249567210674,0.14846037667393683,0.0397762396691367
1760554954109042700,7.721042724609375,-0.03952887731194496,0.11479381552413105,0.10918795834109186
1760554954119047700,7.731047607421875,-0.02793254754245281,0.06862564632818102,0.14189787635318935
1760554954129051600,7.7410517578125,-0.006965747359395026,0.003085837186127901,0.20568141641244292
1760554954139056600,7.751056640625,-0.0016407529443502424,0.007896890729665755,0.24023937344402074
1760554954149060600,7.761060546875,-0.02454056701660156,0.05728343745023012,0.25789536857865747
1760554954159065600,7.771065673828125,-0.049829906573891636,0.12006897944808005,0.19102628359422086
1760554954169069800,7.78106982421875,-0.04690378999412059,0.1465476749204099,0.1930800743188709
1760554954179074800,7.79107470703125,-0.028571429967880247,0.07228694531470536,0.19890191234014928
1760554954189078800,7.801078857421875,0.025990765824913976,-0.1005322120681405,0.15299169996064155
1760554954199083800,7.811083740234375,0.07144903318583964,-0.22866043320074675,0.16619853366669265
1760554954209087500,7.82108740234375,0.0729892483651638,-0.23151450745761393,0.15293850846868007
1760554954219092500,7.831092529296875,0.02859130371212959,-0.08083397051617502,0.13149601706527173
1760554954229096700,7.8410966796875,-0.10324351685345172,0.29791297925561666,0.13106080398578196
1760554954239101700,7.851101806640625,-0.22308044111132622,0.657075084722042,0.06877082695253194
1760554954249105700,7.861105712890625,-0.3291992211401462,0.9477003911875188,0.04863631287515163
1760554954259110700,7.871110595703125,-0.3141816847503185,0.9331608475729822,0.023772943644970655
1760554954269114600,7.881114501953125,-0.2178834569901228,0.6740177439555526,0.09419292604401706
1760554954279119600,7.89111962890625,-0.0389911171734333,0.2178761504665017,0.014748546722717581
1760554954289123800,7.901123779296875,0.12580313918590544,-0.23487791947610676,0.06890760507471859
1760554954299128800,7.91112890625,0.21070961983799932,-0.4240753071427345,0.1519118323020637
1760554954309132800,7.9211328125,0.16654022324383258,-0.37682284984141584,0.09929094330277294
1760554954319137800,7.9311376953125,0.045704351076483726,-0.10385485368482768,0.09869652107357978
1760554954329141500,7.9411416015625,-0.005317395630478858,0.0927396584957838,0.0711843361013569
1760554954339146500,7.951146484375,0.06392740550935268,-0.12455021651536226,-0.24180419334163888
1760554954349150700,7.961150634765625,0.2161445043683052,-0.47266237404868006,-0.058829589179996394
1760554954359155700,7.97115576171875,0.28591245259940623,-0.675558397526294,0.0033469723403453827
1760554954369159700,7.98115966796875,0.28104455430209635,-0.6898774302579462,-0.0870230709472671
1760554954379164700,7.99116455078125,0.1797802285671234,-0.43188525024130936,-0.13038891433989627
1760554954389166600,8.00116650390625,0.1821329291731119,-0.40182591980323196,-0.13497615079861133
1760554954399171600,8.011171630859375,0.013288520640134811,-0.011342647269368171,-0.23455847826339304
1760554954409175600,8.021175537109375,-0.13239128540456294,0.37603681403025985,-0.36247305664531887
1760554954419180500,8.0311806640625,-0.1301835462272167,0.44700551635324953,-0.3805853441800922
1760554954429184800,8.041184814453125,-0.13806056321263313,0.4523771263889968,-0.25754312107488514
1760554954439189800,8.051189697265626,-0.08172142087519169,0.31735618660058823,-0.3502010561039671
1760554954449193700,8.06119384765625,-0.004663315635919571,0.11073993702344596,-0.21674690897455437
1760554954459198700,8.07119873046875,0.015425532668828963,0.06527319409511984,-0.16193799014538526
1760554954469202700,8.08120263671875,0.013796470162272452,0.007305281512066722,-0.13213827875787393
1760554954479207700,8.091207763671875,0.06424246280789375,-0.04785646934276446,-0.027396632301155476
1760554954489212000,8.1012119140625,0.07486614815294743,-0.06452922559371217,-0.10208280251100658
1760554954499217000,8.111216796875,0.14187690663039684,-0.21832431435910984,0.0047322070205118505
1760554954509220600,8.121220703125,0.1966337482124567,-0.37144985156618054,0.03338983570081182
1760554954519225600,8.1312255859375,0.18384207117855547,-0.3609410978376865,0.011056578603293746
1760554954529229600,8.1412294921875,0.13602818060219288,-0.27579174834042786,0.005533522599190473
1760554954539234600,8.151234619140626,0.1474988381654024,-0.25959207122763617,-0.024001053312420844
1760554954549238800,8.16123876953125,0.1382177996009588,-0.26641459245774896,-0.057678665579203516
1760554954559243800,8.171243896484375,0.12017945408523081,-0.25251586749739946,0.046889039949560535
1760554954569247700,8.181247802734376,0.11569617119133471,-0.19809719009483231,0.10030614822730421
1760554954579252700,8.191252685546875,0.10143851325809955,-0.1840112354666926,0.11350540141509845
1760554954589256700,8.201256591796875,0.09268237535059451,-0.16411590044004842,0.1037807290026918
1760554954599261700,8.21126171875,0.03466623971164226,-0.06435726199371274,0.01860501208831556
1760554954609266000,8.221265869140625,-0.06514321103990077,0.14932967945490963,-0.0650776806561742
1760554954619271000,8.23127099609375,-0.17401859630048275,0.4351755970235914,-0.067066068861261
1760554954629274600,8.241274658203125,-0.37361002527475357,0.8085846928987651,-0.10823883178955875
1760554954639279600,8.251279541015625,-0.4970493579387664,1.062334486105293,-0.07118218981004319
1760554954649283600,8.26128369140625,-0.43287002349495884,0.8580686355791985,-0.11056355754323303
1760554954659288600,8.27128857421875,-0.023891747719049453,0.014329079201631248,0.2614009838131256
1760554954669292800,8.281292724609376,0.8031780846148728,-1.3526203314833343,0.14508927453933282
1760554954679297800,8.2912978515625,1.131527410927415,-1.3765106178976594,-0.0584146562701324
1760554954689301800,8.3013017578125,0.47015375222861766,-1.1159658307887612,0.32490853820890186
1760554954699306800,8.311306640625,0.12324644044041633,-0.6478296289276332,0.5077706584393978
1760554954709310700,8.321310791015625,0.15811083307266235,-0.4752355124723166,0.38911205724589526
1760554954719315700,8.331315673828126,0.07460778947770595,-0.1253802375987172,0.263506888317503
1760554954729320000,8.34131982421875,-0.026415713238716124,0.0750921754611656,0.2209606724783778
1760554954739325000,8.351324951171875,0.006924830827116966,0.022347714881133286,0.26002419730089604
1760554954749328600,8.36132861328125,-0.016354337951540947,0.09047507456466555,0.2972136718798429
1760554954759333600,8.371333740234375,-0.14296002569198607,0.2812666543538682,0.230755542316474
1760554954769338600,8.381338623046876,-0.16278876175582407,0.3262745658650994,0.23029020809335632
1760554954779343600,8.391343505859375,-0.0915238529652357,0.2095921235827729,0.18009086541887373
1760554954789347600,8.40134765625,-0.007993336841464043,0.05532243957556784,0.16224219725634903
1760554954799352600,8.4113525390625,0.03079904288947582,-0.02426357670612633,0.16390490630418061
1760554954809356800,8.421356689453125,0.028722236615419387,-0.007016564231179654,0.13158163125580177
1760554954819361800,8.43136181640625,-0.03323533012568951,0.07891862014783546,0.15193850111328064
1760554954829365800,8.44136572265625,-0.05270458522737026,0.06555031226975842,0.11921325766788794
1760554954839370800,8.451370849609376,0.028258710756897926,-0.05602916307281702,0.09817243326739407
1760554954849374700,8.461374755859374,0.07098083115220069,-0.13719327885881066,0.12124310126136988
1760554954859379700,8.471379638671875,0.14747487276792526,-0.2574493966431357,0.15000272901142014
1760554954869384000,8.481384033203126,0.19517302801012992,-0.30890553444568064,0.23483272862751037
1760554954879389000,8.491388916015625,0.1327899293333292,-0.21749896945087238,0.18717090507401152
1760554954889392600,8.501392578125,0.06040273851454257,-0.10051392749277874,0.19767604207331313
1760554954899397600,8.511397705078124,0.0035679216146469114,-0.000457717172242701,0.20080467722155151
1760554954909401900,8.52140185546875,-0.043725744479894635,0.12166024896120652,0.2416098763459362
1760554954919406800,8.53140673828125,-0.08137421487271786,0.20115849562790244,0.19164679011274127
1760554954929410800,8.541410888671875,-0.15848843421339986,0.2922923811611719,-0.015957228392735123
1760554954939415800,8.551415771484375,-0.19500994640290736,0.35120135572031136,-0.02798861597809009
1760554954949420000,8.561419921875,-0.15214228005707264,0.2525615698026493,-0.025059604188334195
1760554954959425000,8.571425048828125,-0.0570814851373434,0.09931795917386188,-0.034788139925105495
1760554954969429000,8.581428955078126,0.030218612653017042,-0.04496628259290009,0.03587976195355877
1760554954979434000,8.59143408203125,0.08555179281830787,-0.18463488379037007,0.11300265779104084
1760554954989438000,8.60143798828125,0.12327449749112128,-0.23320761164370923,0.10668784862104802
1760554954999443000,8.61144287109375,0.08308218783438205,-0.14743391970302908,0.14535472967564128
1760554955009447000,8.621447021484375,0.08484276776611804,-0.1401470506304875,0.12292093481309711
1760554955019452000,8.631451904296876,0.13453998787105081,-0.20905328573202714,0.03011734423562884
1760554955029456000,8.641455810546875,0.11452186671495437,-0.19653669931245968,-0.09197200772468932
1760554955039460900,8.6514609375,0.014718845704197884,-0.05118581469487399,-0.1304094730707351
1760554955049464800,8.66146484375,-0.029450550889968872,0.013499898368492722,-0.12153634858690202
1760554955059469800,8.6714697265625,-0.040889644271135325,0.05276857210798189,-0.08626067174002527
1760554955069474000,8.68147412109375,-0.054763855844736094,0.09010008550612256,-0.029590598681475965
1760554955079479000,8.69147900390625,-0.03828910638391971,0.08022130024423822,0.029891097731702027
1760554955089483000,8.70148291015625,-0.007177344283461571,0.03470116489455104,0.09201959145977161
1760554955099488000,8.711488037109374,-0.034331308668851854,0.08088323475169018,0.1265052687064279
1760554955109492000,8.721491943359375,-0.10333119513690471,0.21655781614324077,0.12910967905116266
1760554955119497000,8.7314970703125,-0.16481997532248496,0.2755814665906131,0.060256891169911245
1760554955129501000,8.7415009765625,-0.18363515042960643,0.3219628401458263,0.10955106516559608
1760554955139505000,8.7515048828125,-0.15796528712213037,0.27182949364595116,0.14532051687878556
1760554955149510000,8.761510009765624,-0.07653437362611293,0.152634885879606,0.12834561760979704
1760554955159513900,8.771513916015625,0.02316167987883091,0.004616626949980855,0.17543608014928175
1760554955169518800,8.781518798828126,0.089096918079257,-0.10142780920099466,0.16206773573858663
1760554955179523000,8.791523193359374,0.14466566056609154,-0.21840967282131313,0.1555655690366402
1760554955189528000,8.801528076171875,0.19994155758619309,-0.26480617088042196,0.22871304017081856
1760554955199532000,8.811531982421876,0.24584055445194242,-0.32545923089422285,0.25585443733558055
1760554955209537000,8.821537109375,0.27802491421997544,-0.4017180389819667,0.28795203213561327
1760554955219541000,8.831541015625,0.254416659617424,-0.3752959690677002,0.28550431018993255
1760554955229546000,8.8415458984375,0.20176701944768427,-0.3130626541251316,0.2542624189037829
1760554955239550000,8.851550048828125,0.1836281361669302,-0.28363420546911655,0.21169128781910984
1760554955249555000,8.861554931640624,0.10433423469960688,-0.18833452375959603,0.2006559529332444
1760554955259559000,8.871558837890625,0.05197568643093109,-0.11064465995542705,0.14675773747451604
1760554955269564000,8.88156396484375,-0.0172451493114233,0.0044443025903776285,0.12185308638587593
1760554955279568000,8.89156787109375,-0.17134382413327692,0.2548096409903839,0.06873467792691662
1760554955289572900,8.90157275390625,-0.25500293507277966,0.380922503712587,0.014994767435593529
1760554955299577000,8.9115771484375,-0.2354372338593006,0.37312647954151035,-0.029027658435935154
1760554955309582000,8.92158203125,-0.20479192022681236,0.3306894231652841,-0.0636097452617716
1760554955319586000,8.9315859375,-0.15117898798286913,0.20978023003339766,-0.08226800364097579
1760554955329591000,8.941591064453124,-0.02693652224242687,0.04486267608795315,-0.07133316998751833
1760554955339594800,8.9515947265625,0.06579729103446007,-0.09836816590204835,-0.06735717902863397
1760554955349600000,8.96160009765625,0.1276701021015644,-0.2148827042715624,-0.0720220381676685
1760554955359604000,8.97160400390625,0.16499124023616313,-0.27699725167267025,-0.10383062342586927
1760554955369609000,8.98160888671875,0.18168050923049447,-0.3138625357985496,-0.12393244081004522
1760554955379613000,8.991613037109374,0.22492110054194925,-0.4013250210763886,-0.07389883749075234
1760554955389618000,9.001617919921875,0.28902678522765635,-0.5088693403962999,-0.055650374621991065
1760554955399622000,9.011621826171876,0.2964437834858894,-0.5032548980480059,0.003960565060889348
1760554955409627000,9.021626953125,0.24198738615512846,-0.40458986809123304,0.03927875674208626
1760554955419631000,9.031631103515625,0.09741524909138678,-0.20339242869243024,0.0858133937634062
1760554955429636000,9.041635986328124,-0.051776364466547965,0.040562823469564316,0.07580286274747923
1760554955439640000,9.05164013671875,-0.17091536958813666,0.223145176910609,-0.00803982459800318
1760554955449645000,9.06164501953125,-0.26256606380343434,0.3535927809014916,-0.05275295441374182
1760554955459648800,9.071648681640625,-0.283342894372344,0.4524277605976909,-0.06558078960641286
1760554955469653800,9.08165380859375,-0.3019084786325693,0.4940105016995221,-0.054607395774545146
1760554955479658000,9.091657958984374,-0.2511468441665172,0.40929026433452964,0.017499261069810017
1760554955489663000,9.1016630859375,-0.09852642520368099,0.1875097999058664,0.1332773109914735
1760554955499667000,9.1116669921875,-0.00877425808608532,0.07061773346085101,0.2039120686523616
1760554955509672000,9.121671875,0.011252630898356437,0.02904934967793524,0.2793831238958984
1760554955519676000,9.131676025390625,0.03744914842844009,-0.0043736485069617624,0.30814320830367503
1760554955529681000,9.141680908203124,0.09007131606936454,-0.10873805914912373,0.3133430054364726
1760554955539685000,9.15168505859375,0.17903204054832458,-0.22538027901891616,0.3197348984306678
1760554955549690000,9.161690185546876,0.21155776109993457,-0.29832766100373115,0.3203176302220672
1760554955559694000,9.171694091796875,0.17204115874767303,-0.2626927223904058,0.25947463712673635
1760554955569699000,9.181698974609375,0.0810451290488243,-0.12150770701430737,0.2527425158601254
1760554955579702800,9.191702880859374,-0.025250761112570762,0.03216660491563379,0.24504788797060026
1760554955589707800,9.201707763671875,-0.051989130434393876,0.08797109238710255,0.26786866372358054
1760554955599712000,9.2117119140625,-0.04690495903789997,0.10014657375141978,0.25414039995931087
1760554955609717000,9.221717041015625,-0.03888356514573097,0.10228018824663013,0.24783220319319516
1760554955619721000,9.231720947265625,-0.07388298233449458,0.12752788061928003,0.21316720559056848
1760554955629726000,9.241725830078124,-0.08934475536048411,0.14593911456800995,0.21048602194888516
1760554955639730000,9.25172998046875,-0.08994155220985411,0.15785503168068826,0.15176306234798392
1760554955649735000,9.26173486328125,-0.12296294732391834,0.21938469186592846,0.14867017436656169
1760554955659739100,9.2717392578125,-0.12613105596601962,0.19773535277880727,0.16331285869516432
1760554955669744000,9.281744140625,-0.05735504138171672,0.10444953164234756,0.1262197662959341
1760554955679748000,9.291748046875,0.014109773895144461,0.0240021127583459,0.16460629603918642
1760554955689753000,9.301753173828125,0.004444119927287101,0.006102408528327941,0.16691979714594782
1760554955699756800,9.3117568359375,-0.029492051944136618,0.028774003335274755,0.17856851468980312
1760554955709761800,9.32176171875,-0.01692015514075756,0.011714585854299365,0.1382165848914068
1760554955719766000,9.33176611328125,-0.02118131971657276,0.030819720351323483,-0.001320065056043677
1760554955729771000,9.34177099609375,-0.042435704669356346,0.06728789491839707,-0.17933518821336328
1760554955739775000,9.35177490234375,-0.05769815573096275,0.09913637379556894,-0.3279117386128753
1760554955749780000,9.361780029296876,-0.12701251497566698,0.18061510848868637,-0.39521636547036465
1760554955759784000,9.371783935546874,-0.1595592783153057,0.22961064659766853,-0.4081498986603692
1760554955769789000,9.381788818359375,-0.12852701119184493,0.21875607510618864,-0.3766620332565158
1760554955779793200,9.391793212890626,-0.0794727651655674,0.12217987065482884,-0.3973592227179557
1760554955789798100,9.401798095703125,0.033251112216711044,-0.05020670399703085,-0.3777650260623544
1760554955799802000,9.411802001953125,0.17697276993095873,-0.23369484717138111,-0.3461012561023235
1760554955809807000,9.42180712890625,0.2201964101076126,-0.3307106486164033,-0.3423630924873054
1760554955819810800,9.431810791015625,0.23533494252860546,-0.3411264633644372,-0.35916250732522453
1760554955829815800,9.44181591796875,0.18702888452112673,-0.2604888191379607,-0.24817783829309045
1760554955839820000,9.451820068359375,0.14081249226927756,-0.20007037159763275,-0.17627786473566665
1760554955849825000,9.461824951171875,0.14606617501378058,-0.2046159060727805,-0.10288341483678669
1760554955859829000,9.4718291015625,0.13592998092472552,-0.19705014699362217,-0.0012613434390164912
1760554955869834000,9.481833984375,0.14910335075259207,-0.1937201988533139,0.024867533948644993
1760554955879838000,9.491837890625,0.10019698876440525,-0.10696553305126726,0.060962838349025696
1760554955889843000,9.501843017578125,-0.002761281406879425,0.010893588327616452,0.06697501131063327
1760554955899847000,9.511846923828125,-0.02663198633790016,0.055197205760702486,0.05556951880496926
1760554955909851600,9.5218515625,-0.036250294032692906,0.07172295475639402,0.04834931262731552
1760554955919855600,9.531855712890625,-0.10473638575971125,0.1633634929038584,0.14255047677671537
1760554955929860600,9.541860595703126,-0.16587386828958986,0.26324513210877776,0.22468221375215797
1760554955939864600,9.551864501953125,-0.2102577844172716,0.3394703667204827,0.24209892023820428
1760554955949869600,9.56186962890625,-0.1968546974867582,0.34144203211963176,0.3101515524514019
1760554955959873800,9.571873779296874,-0.1550590442866087,0.2635632581472397,0.3657311451258138
1760554955969878800,9.581878662109375,-0.04912438865303993,0.14183365201056003,0.32521848094090816
1760554955979882500,9.591882568359376,0.05048164848089218,-0.024937384314462543,0.2381383460441604
1760554955989887500,9.601887451171875,0.013200842356681824,0.055902723681554196,0.2169025013950653
1760554955999891500,9.611891357421875,-0.05413023411631584,0.10615458199456333,0.16649539772141725
1760554956009896400,9.621896484375,-0.02502981183826923,0.0810855341244489,0.28778915145779027
1760554956019900700,9.631900634765625,-0.004084638965129852,0.04935702836513519,0.26795999526884406
1760554956029905700,9.64190576171875,-0.01616378381550312,0.08097308672592043,0.2762543426171876
1760554956039909600,9.65190966796875,-0.01668225473165512,0.12010456221811473,0.38097543947622176
1760554956049913600,9.66191357421875,-0.0030038579910993575,0.09694500123113393,0.4307769236732274
1760554956059918600,9.671918701171874,0.07055120756328105,-0.011109276904910802,0.43336065655611455
1760554956069922600,9.681922607421875,0.04441606483161449,0.007594985173642635,0.33101240804195403
1760554956079927800,9.691927734375,0.012211831319332123,0.05096497501842677,0.2812733032903634
1760554956089931500,9.701931640625,-0.021475334227085113,0.0877561709947884,0.2677289812582545
1760554956099936500,9.7119365234375,-0.046691608548164364,0.1425383662138134,0.2504072413129732
1760554956109940500,9.7219404296875,-0.05222469275593757,0.184810916210711,0.27178097832910714
1760554956119945500,9.731945556640625,-0.07405015559494495,0.2112900500744581,0.33146007874421773
1760554956129949700,9.74194970703125,-0.00410042105615139,0.10015190751366317,0.29170800540195774
1760554956139954700,9.75195458984375,0.08964929126501082,-0.052723582188785076,0.29873364798873664
1760554956149958700,9.761958740234375,0.20944412994682787,-0.23414894761443136,0.20017565860301256
1760554956159963600,9.771963623046876,0.2560638423025608,-0.33923772700838745,-0.07586529699182137
1760554956169967600,9.781967529296875,0.2175906115233898,-0.27512933890894054,-0.00836975067211315
1760554956179972600,9.79197265625,0.1547013168901205,-0.2061068022176623,-0.0339907516028732
1760554956189976600,9.8019765625,0.1360568221747875,-0.16654679911509154,-0.14811841310216112
1760554956199981600,9.811981689453125,0.12012333998382091,0.05766732220128178,-0.1405303873922676
1760554956209985500,9.821985595703126,0.07894903355240822,0.1347119834370911,-0.21363102371003478
1760554956219990500,9.831990478515625,-0.007349193719029426,-0.05473930592536926,-0.24368865538137033
1760554956229994500,9.841994384765625,-0.01805295856297016,-0.24375264226198196,-0.19707811271278186
1760554956239999500,9.85199951171875,0.0487117161989212,-0.25955782189816234,-0.10798088410627096
1760554956250003500,9.86200341796875,0.09322598070800305,-0.13318141286894677,-0.20422902564704418
1760554956260008400,9.872008544921876,0.10631342581808566,-0.16764102409258483,-0.30179095320012417
1760554956270012700,9.8820126953125,0.07438567115962505,-0.11248641536459326,-0.18276192952534182
1760554956280017700,9.892017578125,-0.02473404376208782,0.029294921936839816,-0.13529299819543958
1760554956290021600,9.902021728515624,-0.12095745272040366,0.13519377560466528,-0.21196380288386715
1760554956300026600,9.912026611328125,-0.09553484217226504,0.08949205487668514,-0.23440900505641474
1760554956310030600,9.922030517578126,-0.03649754679203033,0.04077244763225317,-0.2357410756440833
1760554956320035600,9.93203564453125,-0.007448562440276145,-0.011049801802635192,-0.22178945145271717
1760554956330039600,9.94203955078125,0.019002222111821173,-0.04407938022315502,-0.21003148311441763
1760554956340044500,9.95204443359375,0.09060206194519996,-0.1456288065098226,-0.13634930231533943
1760554956350048500,9.962048583984375,0.14944997223317621,-0.20308263209089636,-0.019758319442439824
1760554956360053500,9.972053466796876,0.12583002719283104,-0.1678399076655507,0.00206907962532714
1760554956370057500,9.982057373046874,0.1635328581213951,-0.2146390682414174,0.009378032665513455
1760554956380062500,9.9920625,0.2453103930979967,-0.3109457715690136,-0.030459983660839497
1760554956390066700,10.002066650390624,0.27455694584846496,-0.3884254632212221,-0.025080007655546067
1760554956400071700,10.01207177734375,0.31353169640898704,-0.43549949521571396,0.026362192953191695
1760554956410075600,10.02207568359375,0.30749943050742146,-0.4367440884493291,0.05225000986028462
1760554956420080600,10.03208056640625,0.22673019579052925,-0.3100185737214982,0.04178381663188338
1760554956430084400,10.04208447265625,0.21210545811057088,-0.3158140351925045,0.1444696265373379
1760554956440089300,10.05208935546875,0.29710078608989715,-0.4270768270462751,0.34355584593582894
1760554956450093600,10.062093505859375,0.35090544151365755,-0.4881015699166804,0.39784243965763594
1760554956460098600,10.0720986328125,0.34008711037933825,-0.4759767592936754,0.4763136996304616
1760554956470102500,10.0821025390625,0.2067810482174158,-0.25131438275314866,0.5817042384499683
1760554956480107500,10.092107421875,0.1216138708025217,-0.12348397552333772,0.45036034320648755
1760554956490111500,10.102111572265626,0.13183189795613287,-0.18229009249620137,0.25351715349443255
1760554956500116500,10.112116455078125,0.048810500398278237,-0.10088825896419584,0.2095860226355493
1760554956510120700,10.12212060546875,-0.10298165104687214,0.11631254952400923,0.20687442558929323
1760554956520125700,10.132125732421875,-0.13612111958265305,0.17092625630833208,0.1470636068196036
1760554956530129700,10.142129638671875,-0.06437398023307322,0.05696925693452358,0.15825292669078334
1760554956540134700,10.152134765625,0.01733282759487629,-0.0575331013623625,0.08224407477611675
1760554956550138400,10.162138427734375,0.06676584380567073,-0.16695194584988057,0.03715144412349909
1760554956560143400,10.172143310546875,0.1649883176267147,-0.2960737080644816,-0.05505140408184379
1760554956570147600,10.182147705078124,0.1650181282430887,-0.3570421176377684,-0.21093250534106045
1760554956580152600,10.192152587890625,0.17562193984389304,-0.3403009357931092,-0.027218554054200646
1760554956590156500,10.202156494140626,0.1864420245438814,-0.3588326177837327,-0.0024593575845472514
1760554956600161500,10.21216162109375,0.21097031660079954,-0.38988099579177793,0.15002673094151542
1760554956610165500,10.22216552734375,0.2974848169714212,-0.5286406471844762,0.24649426912032066
1760554956620170500,10.23217041015625,0.3098316728472709,-0.5616235734516755,0.22154643647707997
1760554956630174700,10.2421748046875,0.20122867478728293,-0.4428900438584387,0.0916381178615149
1760554956640179700,10.2521796875,-0.25763854427337646,0.14889548015557227,0.05870344204967841
1760554956650183700,10.26218359375,-0.8228039915829897,1.0031306750517337,-0.008114625133574008
1760554956660188700,10.272188720703125,-0.795139739587903,1.0875807171732186,-0.19691822770964354
1760554956670192400,10.2821923828125,-0.1815314561486244,0.2716960399920121,-0.06331825150190852
1760554956680197400,10.292197265625,-0.08268938912451267,0.11810876702470705,-0.04239967437474988
1760554956690201600,10.30220166015625,-0.1979576902925968,0.34054658111725,-0.06495698601910845
1760554956700206600,10.31220654296875,-0.2122960122466087,0.41913339376114306,0.04465848615220747
1760554956710210600,10.32221044921875,-0.10591010571420192,0.21754827021900563,0.14904937380934133
1760554956720215600,10.332215576171874,0.018408347871899603,-0.025995099506736733,0.2783482096238993
1760554956730219500,10.342219482421875,0.10288520493507385,-0.19107629674840718,0.30145140078114346
1760554956740224500,10.352224609375,0.13238251757621763,-0.3054765098450705,0.2459060757025145
1760554956750228700,10.362228759765625,0.1393377435415983,-0.3253121505737305,0.34611974160708486
1760554956760233700,10.372233642578125,0.12298282106816769,-0.3272696413170546,0.25289591632355
1760554956770237700,10.38223779296875,0.03157236534953117,-0.1257152051741257,0.013052837304293644
1760554956780242700,10.39224267578125,-0.10790157179236412,0.15091178841404615,-0.023026447543047834
1760554956790246400,10.402246337890626,-0.18808219296634196,0.3493343197394162,-0.04039008811800741
1760554956800251400,10.41225146484375,-0.25020459488034247,0.4946574213009327,-0.05437461449855473
1760554956810255600,10.422255615234375,-0.3151660196125507,0.7009729708984493,0.06993030375253874
1760554956820260600,10.432260498046874,-0.38116029452383515,0.8460594141598791,0.13896086392006837
1760554956830264600,10.4422646484375,-0.3798205703526735,0.9161965610295534,0.11338575709080323
1760554956840269600,10.45226953125,-0.4355617467969656,1.0111018000613898,0.06684852168702055
1760554956850273500,10.4622734375,-0.44989714614152904,1.0516315980441868,-0.040332983069331384
1760554956860278500,10.472278564453125,-0.42822658160328864,0.9993450190331786,0.05648287992337718
1760554956870282800,10.48228271484375,-0.3534884437441826,0.8192061132214963,0.11072587196547537
1760554956880287700,10.492287841796875,-0.2371054593324661,0.5395389847524463,0.08289596281358971
1760554956890291700,10.502291748046876,-0.014106266763806342,-0.11150732293305918,0.033372596871643324
1760554956900296700,10.512296630859375,0.48061844761967654,-1.0699035331200808,-0.18064389619175344
1760554956910304000,10.522303955078126,0.9273474851191044,-1.7529279556781052,-0.08882838506987317
1760554956920309000,10.53230908203125,0.8176958547890186,-1.4216842230983078,-0.005167490881949197
1760554956930313000,10.54231298828125,0.46671150282025337,-0.842929883962497,-0.09193631535680033
1760554956940318000,10.55231787109375,0.314275792774558,-0.5804025447342545,0.1321540791152045
1760554956950322000,10.562322021484375,0.2340034016638994,-0.4228675022555515,0.10786551409829408
1760554956960327000,10.572326904296874,0.04087269313633442,-0.12056242552082985,0.1284446484043263
1760554956970331000,10.582330810546875,-0.09140285693407058,0.12157552981982007,0.09309695663400926
1760554956980335900,10.5923359375,-0.08023322814404964,0.1248205213567242,0.01612186263622716
1760554956990340000,10.602340087890624,-0.1570060867011547,0.27370933430949224,-0.018447398957365656
1760554957000345000,10.612344970703125,-0.2669616684138775,0.4737587909832596,-0.08107050095209851
1760554957010349000,10.62234912109375,-0.21253800430893896,0.4024691130775958,-0.10287151433643885
1760554957020354000,10.63235400390625,-0.08540157069265841,0.13317901998246087,-0.08458301171823404
1760554957030358000,10.64235791015625,0.0657131198823452,-0.10518235769523307,-0.047352953967149364
1760554957040363000,10.652363037109374,0.13835223963558674,-0.2604756125965155,-0.07440907943467609
1760554957050367000,10.662366943359375,0.2331055760413408,-0.39599874801971013,-0.04365331856450066
1760554957060371000,10.672370849609376,0.26374738254249097,-0.4336109049901366,-0.019430450611386912
1760554957070376000,10.6823759765625,0.15855565423071383,-0.27500585865974425,-0.06643012731159105
1760554957080381000,10.692380859375,0.0671288318991661,-0.13825891706263646,-0.033497136566764674
1760554957090385000,10.702385009765624,-0.009644611179828642,-0.02144446416478604,-0.05403740930028725
1760554957100389000,10.71238916015625,0.0008177461236715316,-0.022811094609182327,0.006389600572409108
1760554957110394000,10.72239404296875,0.027758944541215896,-0.07620968998270108,0.08198009007768706
1760554957120398000,10.732398193359375,0.0666974547445774,-0.1729021046922542,0.16374396185511722
1760554957130403000,10.742403076171875,0.1131435640990734,-0.2171548321883194,0.1779533784661442
1760554957140406800,10.75240673828125,0.10528934346735477,-0.22891983305560423,0.11984536329265683
1760554957150411800,10.762411865234375,0.09503858308792114,-0.21251224881317465,0.07550703530579339
1760554957160416000,10.772416015625,0.053343467652797696,-0.1336661002465058,0.032023949608509426
1760554957170421000,10.7824208984375,0.000391045144200325,-0.017475697531132026,0.10750985079472884
1760554957180425000,10.792425048828125,-0.037186698099970814,0.031364348622038955,0.1481910764795728
1760554957190430000,10.802429931640624,-0.06807049666345119,0.09554845970566384,0.13843414576537907
1760554957200434000,10.812433837890625,-0.05843173070251941,0.15067102019442244,0.1911536545672454
1760554957210439000,10.82243896484375,-0.05899170267283916,0.11280562824844383,0.18384236343950033
1760554957220443100,10.832443115234375,-0.036226913157105446,0.08300919566340743,0.1739385898668319
1760554957230448000,10.8424482421875,-0.04101005578041077,0.05955202626960818,0.19883248209943993
1760554957240452000,10.8524521484375,0.0007359130591154098,-0.011511418831860645,0.24795336362114176
1760554957250457000,10.86245703125,0.07509528073370456,-0.1751349235119298,0.26270368217583745
1760554957260460800,10.872460693359375,0.0948182183355093,-0.2291288726964034,0.2827710310348309
1760554957270465800,10.8824658203125,0.0428472080796957,-0.13134220560989343,0.2660626372149214
1760554957280470000,10.892469970703125,-0.011231003588438034,-0.029316069756145587,0.16239022742491213
1760554957290475000,10.90247509765625,-0.05199556017518043,0.07835111332503147,0.14274597194935193
1760554957300479000,10.91247900390625,-0.10651625491380691,0.18962189668901264,0.11283094535279087
1760554957310484000,10.92248388671875,-0.1303460433125496,0.2410873503091745,0.10939410277190617
1760554957320488000,10.932488037109374,-0.14008300895094872,0.2812908024144359,0.08606329513755627
1760554957330493000,10.942492919921875,-0.14830898550450802,0.29907199483131985,0.07602929191449656
1760554957340497000,10.952496826171876,-0.16536591876745224,0.3229277396552265,0.1306129780198913
1760554957350502000,10.962501953125,-0.162238726657629,0.3508638308616355,0.1710560567004606
1760554957360506000,10.972506103515625,-0.17036942614316938,0.34389713365416974,0.16356380124893038
1760554957370511000,10.982510986328125,-0.13186404666006565,0.23173282638341186,0.19256564025701953
1760554957380514800,10.992514892578125,-0.019616554617881775,0.0373267093588598,0.18304768766416235
1760554957390519800,11.002519775390626,0.07870528792440891,-0.17461564887817949,0.09451342670265585
1760554957400523800,11.012523681640625,0.1837842035114765,-0.3362774158980697,0.11192278099930844
1760554957410529000,11.022529052734376,0.19747253712415694,-0.3938819019962102,0.03654580638054758
1760554957420533000,11.032532958984374,0.19054419916570187,-0.34853188078273084,-0.010930997728556394
1760554957430538000,11.0425380859375,0.1255786827802658,-0.2496742143306881,0.01939587020506151
1760554957440542000,11.0525419921875,0.05448386985957622,-0.12420003310451283,0.007930856931349262
1760554957450547000,11.062546875,0.004634674063324928,-0.010849274261854589,0.020786831373116
1760554957460551000,11.072551025390625,-0.026516251003742216,0.014974418767308815,-0.011193840782670304
1760554957470556000,11.082555908203124,-0.023405425506830214,0.0574087169308681,-0.026746132503170518
1760554957480560000,11.09256005859375,-0.018504209461808203,0.039417644622968505,-0.01563250821670517
1760554957490565000,11.102565185546876,0.002853635865449905,0.007222133273258805,0.008813311454840003
1760554957500568800,11.11256884765625,0.03947802390754223,-0.05987712547155097,-0.00003614902561530471
1760554957510573800,11.12257373046875,0.04602700715959072,-0.07112157306345179,-0.050249291896587236
1760554957520577800,11.132577880859374,0.013368015617132186,-0.033428925602184606,-0.10641789997271262
1760554957530582800,11.142582763671875,0.011380056670308112,0.0009020634062588214,-0.09614625206887721
1760554957540587000,11.1525869140625,-0.01859364131093025,0.02220226026214659,-0.1275677285724785
1760554957550592000,11.162592041015625,-0.0006675239980220794,-0.013510529360361397,-0.12453564000073819
1760554957560596000,11.172595947265625,0.05754150386452674,-0.0978355751289986,-0.10101594046447425
1760554957570601000,11.18260107421875,0.11144728157520294,-0.17848743054391816,-0.029792669725371524
1760554957580605000,11.19260498046875,0.11630115134716033,-0.20946256065266206,0.036811124519538135
1760554957590610000,11.20260986328125,0.11085106924772262,-0.2189903770524077,0.0918861926047597
1760554957600614100,11.2126142578125,0.07473346168398856,-0.13439274315377697,0.1323677035995759
1760554957610619100,11.222619140625,0.02783668595254421,-0.08057452499554492,0.1350653817183338
1760554957620622800,11.232622802734374,0.012208324187994002,-0.047251699249492955,0.16490140652824192
1760554957630627800,11.2426279296875,0.012140519648790359,-0.04596373266503215,0.14975962270423768
1760554957640631800,11.2526318359375,0.03825695767998695,-0.06382190844141877,0.11525953333973885
1760554957650636800,11.26263671875,0.019622984358668327,-0.057742067937925454,0.04886399328433908
1760554957660641000,11.27264111328125,-0.027606968849897384,0.01183843142967671,0.02814462852370925
1760554957670646000,11.28264599609375,-0.06827332575917243,0.09406576513354666,0.04502880816878751
1760554957680650000,11.29264990234375,-0.0773942053258419,0.14587828775886447,0.07617531278906389
1760554957690655000,11.302655029296876,-0.06094751291573047,0.1638143784765154,0.10688612027266062
1760554957700659000,11.312658935546875,-0.03627718203961849,0.07648371201795526,0.12940145593881605
1760554957710664000,11.322663818359375,-0.0009796586871147156,-0.03042787148952484,0.14923518783818
1760554957720668200,11.332668212890624,0.02070551889836788,-0.07836610996476374,0.16582831211481242
1760554957730673200,11.342673095703125,0.036110008779168125,-0.10375940308687276,0.15895959538910537
1760554957740676900,11.3526767578125,0.04523381095528602,-0.07423775058891624,0.13883452499350532
1760554957750681900,11.362681884765625,0.023377368456125258,-0.021493125612102447,0.12307145833284594
1760554957760685800,11.372685791015625,-0.02362520573735237,0.0345512258966919,0.08169406707738526
1760554957770690800,11.38269091796875,-0.02678454655110836,0.05232422587396577,0.04344135631425306
1760554957780695000,11.392695068359375,-0.017225860089063644,0.014811090564914047,0.03154735877243802
1760554957790700000,11.402699951171876,0.00265256033539772,0.0019973752291407433,0.008471923271799459
1760554957800704000,11.4127041015625,-0.009948562562465667,0.012729617248894647,0.017017505434853954
1760554957810709000,11.422708984375,-0.03183890733122825,0.04691135224606841,0.04143395288144238
1760554957820713000,11.432712890625,-0.04401566733717918,0.06388796854810788,0.02223762840304989
1760554957830718000,11.442718017578125,-0.030616672059893605,0.05733598048822023,0.07490203231708147
1760554957840722000,11.452721923828125,-0.0160252521276474,0.0002494447164237499,0.09982152478182688
1760554957850727000,11.462726806640624,0.0235585702419281,-0.0555496724601835,0.075293757881294
1760554957860731000,11.47273095703125,0.026924247282743452,-0.042453459521755575,0.06982099359259009
1760554957870736000,11.48273583984375,0.0006499883413314818,0.0013373678172938525,0.11670167670575901
1760554957880739800,11.49273974609375,-0.022796353697776793,0.03408458563247695,0.12428223149525001
1760554957890744800,11.502744873046876,-0.014990063861012457,0.04449302079165354,0.10917630443591624
1760554957900749000,11.5127490234375,-0.029049568873643874,0.061126577543374146,0.1012059831438586
1760554957910751000,11.5227509765625,-0.02606909175813198,0.03665692033851519,0.09875401428132317
1760554957920755000,11.5327548828125,-0.013063479712605476,0.021896555313840507,0.09216249792864546
1760554957930760000,11.542760009765624,0.06147241357266903,-0.08935056404676288,0.11190308991814962
1760554957940764000,11.552763916015625,0.10041852256059645,-0.16946579183433205,0.13277002818961628
1760554957950769000,11.562768798828126,0.05932312658429145,-0.12798420955203474,0.11045072655221447
1760554957960772900,11.57277294921875,0.04577858535647392,-0.08507118796082214,0.10358726139036006
1760554957970778000,11.582778076171875,0.0524544098585844,-0.111645891153533,0.07699077562410384
1760554957980781800,11.59278173828125,0.052850715699791904,-0.09312668505199254,0.09824811058579944
1760554957990786800,11.602786865234375,0.014939794978499411,-0.04924962246790528,0.0996359390818514
1760554958000790800,11.612790771484375,-0.011897358542680739,-0.021454163574893027,0.06606575097860769
1760554958010795800,11.622795654296874,0.02517243517935276,-0.03799317391095683,0.07889313864670694
1760554958020800000,11.632800048828125,0.048046530288457866,-0.07445855373274535,0.051651340714236715
1760554958030805000,11.642804931640624,0.059715340772271155,-0.10559623572574928,0.03684213614573236
1760554958040809000,11.65280908203125,0.03262275118529796,-0.051410545095149425,0.037266259292338504
1760554958050814000,11.66281396484375,-0.013330021694302557,0.015360778603237122,0.06304413813510909
1760554958060818000,11.67281787109375,-0.00795242030918598,-0.001206416647695005,0.08583333143973723
1760554958070823000,11.682822998046875,0.014195114091038703,-0.04944046886488795,0.06396873303358443
1760554958080827000,11.692826904296876,0.04219838878214359,-0.08096481208791956,0.03125054495006334
1760554958090832000,11.702831787109375,0.05511106184720993,-0.08574737018933519,0.008760985329269897
1760554958100835800,11.7128359375,0.04529810836315155,-0.0997251517352648,0.0008091678082826546
1760554958110840800,11.7228408203125,0.06453706184029578,-0.09579921046318486,-0.04110904090916738
1760554958120844800,11.7328447265625,0.0658393766105175,-0.11552028490146621,-0.06673496461021713
1760554958130849800,11.742849853515626,0.0487380196839571,-0.09338276043860241,-0.04441858558226377
1760554958140853800,11.752853759765625,0.01547404798567295,-0.04855583151746541,0.007465401693934109
1760554958150858800,11.762858642578125,-0.005979074409604072,-0.023442286918498575,0.08237730923434719
1760554958160863000,11.772863037109374,-0.011427402943372725,-0.02509217301737517,0.1305719427566044
1760554958170868000,11.782867919921875,-0.002377250525355339,-0.010513338572066277,0.1529353301309049
1760554958180872000,11.792871826171876,-0.025967969471216202,0.04069523594388738,0.15308918725205584
1760554958190877000,11.802876953125,-0.03729483464956283,0.028328999514132737,0.12592520379615016
1760554958200880600,11.812880615234375,-0.015861585998535155,0.00909311477690935,0.09315663266568444
1760554958210886000,11.822885986328124,-0.002513444125652313,-0.004219078999757766,0.07861386504760011
1760554958220889900,11.832889892578125,0.02444821255803108,-0.03045130716403946,0.08375015935697593
1760554958230894800,11.842894775390626,-0.0008183306455612182,-0.018142847069818526,0.08295343775502406
1760554958240898800,11.85289892578125,-0.009326046749949454,-0.005598477594181895,0.06097699017196428
1760554958250903800,11.86290380859375,0.011201192972064018,-0.03382206223877147,0.04219936602967791
1760554958260907800,11.87290771484375,0.022462591698765754,-0.04513424130463972,0.042724252986884675
1760554958270912800,11.882912841796875,0.03149754654765129,-0.0683121599322185,0.07201216066104825
1760554958280917000,11.8929169921875,0.06658347297608852,-0.13206221784697844,0.041942450392851605
1760554958290922000,11.902921875,0.041672319081425664,-0.09760483511304482,0.02747994493674487
1760554958300926000,11.912926025390625,0.0209486800044775,-0.059021787283848964,0.041626950136316
1760554958310931000,11.922930908203124,-0.018946692532300947,-0.005114018545486033,0.06120438288678415
1760554958320934700,11.9329345703125,-0.0594604892283678,0.046678767332900314,0.045547708343202244
1760554958330939600,11.942939697265626,-0.053446928027272224,0.06306868805447594,0.02772640082834987
1760554958340944000,11.95294384765625,-0.023052374285459518,0.014042060687486082,-0.03668049757692497
1760554958350948900,11.962948974609375,-0.002235211706161499,-0.009820351339224726,0.023332469868473708
1760554958360952800,11.972952880859374,0.020686229676008222,-0.03634314168160781,0.02725150647573173
1760554958370957800,11.982957763671875,0.047211833029985426,-0.09677914314493537,0.06451666750623844
1760554958380961800,11.9929619140625,0.04470891029834747,-0.09123836882105096,0.0909185622821562
1760554958390965000,12.002965087890624,-0.00029927520751953123,-0.018284191769268363,0.1005766448649112
1760554958400970000,12.012969970703125,-0.03051496525108814,0.04429609171375632,0.10910980593780986
1760554958410973700,12.0229736328125,-0.043244682964682576,0.07922786876009777,0.10361509011220187
1760554958420978700,12.032978759765625,-0.040729485273361205,0.07549308441225439,0.1119428008740302
1760554958430983000,12.04298291015625,-0.026111177334189415,0.051182855552807445,0.09535523868850432
1760554958440988000,12.05298779296875,-0.038297289690375325,0.057179118559230115,0.06998980168770066
1760554958450991900,12.062991943359375,-0.04752162963151931,0.08326278683198615,0.041994180580088865
1760554958460996900,12.072996826171876,-0.055281157717108724,0.10389827270144596,0.040069203866878525
1760554958471000800,12.083000732421874,-0.05214110612571239,0.09622227644715457,0.055462953157955776
1760554958481005800,12.093005859375,-0.02042845552265644,0.02090487739536911,0.07062155111944303
1760554958491010000,12.103010009765624,-0.004729951131343842,-0.02888489809753373,0.054089372382964934
1760554958501015000,12.11301513671875,0.022041735938191413,-0.036671898711938405,0.04577727018222213
1760554958511019000,12.12301904296875,0.03280512201488018,-0.050309214523434634,0.028551012800936585
1760554958521024000,12.13302392578125,0.016924246793985367,-0.054614108643122015,-0.00832381775471149
1760554958531027700,12.14302783203125,-0.007815057665109634,-0.0005792246600612998,-0.020078130547911858
1760554958541032700,12.15303271484375,-0.0309568637996912,0.07116564966719598,-0.08350940027050674
1760554958551037000,12.163036865234375,-0.06554536210000515,0.12001445451555773,-0.1354276939583942
1760554958561042000,12.1730419921875,-0.10067980384528637,0.15760502070868387,-0.16757435206454246
1760554958571046000,12.1830458984375,-0.13051672370433806,0.16868028574613853,-0.21456969279963523
1760554958581051000,12.19305078125,-0.08170973043739795,0.08368824570244178,-0.14258790444396435
1760554958591054800,12.203054931640626,-0.00019055413603782652,0.005188216292858124,-0.027467423381889237
1760554958601059800,12.213059814453125,-0.01582183851003647,0.007822510319203137,0.04469527449863962
1760554958611064000,12.22306396484375,0.016734277179837227,-0.04904591658934951,0.0307123235872481
1760554958621069000,12.233069091796875,0.0928875425338745,-0.16552998675536362,0.058200314833130685
1760554958631072800,12.24307275390625,0.14276654894649982,-0.22826540600117295,-0.002234462787490338
1760554958641077800,12.253077880859376,0.12625088295340536,-0.24487287846356628,-0.10192310017095878
1760554958651081700,12.263081787109375,0.08477145609557628,-0.1861078972186893,-0.11347918926160781
1760554958661086700,12.273086669921875,0.06903846491277217,-0.1323604884075001,-0.08785303723169491
