time,seconds_elapsed,z,y,x
1760554526532666600,0.05466650390625,-0.9573822021484375,-0.3399658203125,0.158905029296875
1760554526542671600,0.064671630859375,-0.9881439208984375,-0.325714111328125,0.06378173828125
1760554526552675800,0.07467578125,-0.9923553466796875,-0.347747802734375,0.0526885986328125
1760554526562679800,0.0846796875,-0.9496002197265625,-0.3622894287109375,0.0683135986328125
1760554526572684800,0.094684814453125,-0.89501953125,-0.3958740234375,0.12847900390625
1760554526582688500,0.1046884765625,-0.8294830322265625,-0.46966552734375,0.18585205078125
1760554526592693500,0.114693603515625,-0.800262451171875,-0.5564422607421875,0.2235565185546875
1760554526602697700,0.12469775390625,-0.8238677978515625,-0.581146240234375,0.2656097412109375
1760554526612701700,0.13470166015625,-0.8225250244140625,-0.4126434326171875,0.22149658203125
1760554526622706700,0.144706787109375,-0.7756805419921875,-0.2301788330078125,0.1361846923828125
1760554526632710700,0.154710693359375,-0.766204833984375,-0.2696380615234375,0.09320068359375
1760554526642715600,0.164715576171875,-0.7402191162109375,-0.29833984375,0.0409393310546875
1760554526652719600,0.1747197265625,-0.7232513427734375,-0.343231201171875,0.0123748779296875
1760554526662723600,0.1847236328125,-0.7229156494140625,-0.367950439453125,0.003692626953125
1760554526672728600,0.194728515625,-0.7283782958984375,-0.3745269775390625,-0.007659912109375
1760554526682732500,0.204732666015625,-0.732940673828125,-0.3885650634765625,-0.0328826904296875
1760554526692737500,0.214737548828125,-0.7286376953125,-0.374786376953125,-0.0634765625
1760554526702741500,0.224741455078125,-0.70263671875,-0.3350372314453125,-0.0992584228515625
1760554526712745700,0.234745849609375,-0.6650238037109375,-0.27752685546875,-0.14129638671875
1760554526722750700,0.244750732421875,-0.6551971435546875,-0.237091064453125,-0.189971923828125
1760554526732754700,0.254754638671875,-0.66015625,-0.195404052734375,-0.2279815673828125
1760554526742759700,0.264759765625,-0.669525146484375,-0.156463623046875,-0.230712890625
1760554526752763600,0.274763671875,-0.692474365234375,-0.126953125,-0.1967926025390625
1760554526762767600,0.284767578125,-0.724822998046875,-0.1024322509765625,-0.136077880859375
1760554526772772600,0.294772705078125,-0.7652130126953125,-0.0572967529296875,-0.067291259765625
1760554526782776600,0.304776611328125,-0.7914886474609375,-0.00439453125,-0.00152587890625
1760554526792781600,0.314781494140625,-0.7977447509765625,0.016326904296875,0.0704193115234375
1760554526802785500,0.32478564453125,-0.8148651123046875,-0.0055084228515625,0.1319580078125
1760554526812789800,0.334789794921875,-0.83740234375,-0.0453643798828125,0.191619873046875
1760554526822794800,0.344794677734375,-0.8509979248046875,-0.09539794921875,0.2523040771484375
1760554526832798700,0.354798828125,-0.8709869384765625,-0.147430419921875,0.3076019287109375
1760554526842803700,0.3648037109375,-0.887451171875,-0.20391845703125,0.34674072265625
1760554526852807700,0.3748076171875,-0.9281005859375,-0.2139892578125,0.346954345703125
1760554526862811600,0.384811767578125,-0.98291015625,-0.1990203857421875,0.272247314453125
1760554526872816600,0.394816650390625,-0.7028961181640625,-0.162445068359375,0.012603759765625
1760554526882820600,0.404820556640625,-0.68731689453125,-0.130035400390625,0.2578125
1760554526892825600,0.41482568359375,-0.989776611328125,-0.265045166015625,1.1148223876953125
1760554526902829600,0.42482958984375,-1.102203369140625,-0.3600006103515625,0.901336669921875
1760554526912833800,0.434833740234375,-1.3578643798828125,-0.2812652587890625,0.815185546875
1760554526922838800,0.4448388671875,-1.5018157958984375,-0.1249542236328125,0.61566162109375
1760554526932842800,0.4548427734375,-1.3195343017578125,-0.0273284912109375,0.3303680419921875
1760554526942847700,0.46484765625,-0.7287750244140625,0.0890350341796875,-0.3831939697265625
1760554526952851500,0.4748515625,-0.9574432373046875,0.1438751220703125,-0.36279296875
1760554526962855700,0.484855712890625,-0.945281982421875,0.0640411376953125,-0.3021697998046875
1760554526972860700,0.494860595703125,-0.96258544921875,-0.06689453125,-0.070770263671875
1760554526982864600,0.50486474609375,-1.083984375,-0.2107391357421875,0.25006103515625
1760554526992869600,0.51486962890625,-1.137664794921875,-0.2413787841796875,0.5662994384765625
1760554527002873600,0.52487353515625,-1.06988525390625,-0.2862396240234375,0.5828399658203125
1760554527012877800,0.5348779296875,-0.991455078125,-0.186492919921875,0.6631011962890625
1760554527022882800,0.5448828125,-1.027099609375,-0.07086181640625,0.6331939697265625
1760554527032886800,0.55488671875,-0.948699951171875,-0.1012115478515625,0.2315673828125
1760554527042891800,0.564891845703125,-0.88702392578125,-0.1606597900390625,-0.0867156982421875
1760554527052895500,0.5748955078125,-0.56683349609375,-0.0090789794921875,-0.241180419921875
1760554527062899700,0.584899658203125,-0.6165924072265625,0.2406463623046875,-0.0606536865234375
1760554527072904700,0.59490478515625,-0.88189697265625,0.1823883056640625,0.33856201171875
1760554527082908700,0.60490869140625,-0.8702239990234375,0.0157928466796875,0.52099609375
1760554527092913700,0.61491357421875,-0.8270721435546875,-0.138671875,0.64544677734375
1760554527102917600,0.624917724609375,-0.7156982421875,-0.2923126220703125,0.616455078125
1760554527112921600,0.634921630859375,-0.7089996337890625,-0.261199951171875,0.534759521484375
1760554527122926600,0.644926513671875,-0.809814453125,-0.051513671875,0.496917724609375
1760554527132930800,0.654930908203125,-0.8902740478515625,0.2231903076171875,0.4853515625
1760554527142935800,0.664935791015625,-0.9645843505859375,0.380462646484375,0.3817291259765625
1760554527152939500,0.674939453125,-1.0153350830078125,0.3972930908203125,0.2730712890625
1760554527162943500,0.684943603515625,-1.0615386962890625,0.41204833984375,0.3143768310546875
1760554527172948500,0.694948486328125,-0.983856201171875,0.3990631103515625,0.352569580078125
1760554527182952700,0.70495263671875,-0.9859771728515625,0.407440185546875,0.3947296142578125
1760554527192957700,0.714957763671875,-1.0872802734375,0.4066162109375,0.3437042236328125
1760554527202961700,0.724961669921875,-1.1236114501953125,0.46875,0.2066497802734375
1760554527212966700,0.734966552734375,-1.1687469482421875,0.55517578125,0.0621490478515625
1760554527222970600,0.744970703125,-1.24224853515625,0.627960205078125,-0.0186767578125
1760554527232974800,0.754974853515625,-1.2879638671875,0.6263885498046875,-0.0996856689453125
1760554527242979800,0.764979736328125,-1.246124267578125,0.562469482421875,-0.19256591796875
1760554527252983600,0.774983642578125,-1.1333160400390625,0.5313720703125,-0.1447296142578125
1760554527262988500,0.784988525390625,-1.0767059326171875,0.44976806640625,-0.071807861328125
1760554527272992500,0.794992431640625,-1.0229949951171875,0.3483123779296875,-0.0286865234375
1760554527282996700,0.804996826171875,-1.012664794921875,0.235321044921875,0.019287109375
1760554527293002200,0.815002197265625,-1.0277099609375,0.127685546875,0.0328369140625
1760554527303006200,0.825006103515625,-1.01275634765625,0.1246795654296875,-0.0522918701171875
1760554527313011200,0.83501123046875,-1.1042022705078125,0.0898895263671875,-0.047698974609375
1760554527323015000,0.845014892578125,-1.0577239990234375,0.012420654296875,-0.07257080078125
1760554527333019100,0.85501904296875,-0.9342498779296875,-0.0598907470703125,-0.2465362548828125
1760554527343024000,0.865024169921875,-0.927764892578125,-0.1452789306640625,-0.2609405517578125
1760554527353028000,0.875028076171875,-0.95281982421875,-0.1368560791015625,-0.2189483642578125
1760554527363033000,0.885033203125,-0.9713592529296875,-0.167999267578125,-0.2363433837890625
1760554527373037000,0.895037109375,-1.0106353759765625,-0.2031097412109375,-0.2253265380859375
1760554527383041000,0.905041015625,-1.07269287109375,-0.1927337646484375,-0.1924285888671875
1760554527393046000,0.9150458984375,-1.11151123046875,-0.223663330078125,-0.2271270751953125
1760554527403050200,0.92505029296875,-1.1146697998046875,-0.2480010986328125,-0.265106201171875
1760554527413055200,0.93505517578125,-1.138946533203125,-0.2834625244140625,-0.2911376953125
1760554527423059000,0.945058837890625,-1.14300537109375,-0.260223388671875,-0.2869110107421875
1760554527433063000,0.95506298828125,-1.1311187744140625,-0.3090362548828125,-0.2246551513671875
1760554527443068000,0.96506787109375,-1.1598052978515625,-0.364990234375,-0.169525146484375
1760554527453072100,0.975072021484375,-1.1152801513671875,-0.3988800048828125,-0.126708984375
1760554527463077000,0.9850771484375,-1.0781097412109375,-0.4154205322265625,-0.0818023681640625
1760554527473081000,0.9950810546875,-1.073760986328125,-0.438232421875,-0.0962982177734375
1760554527483085000,1.0050849609375,-1.1156158447265625,-0.3935546875,0.0343170166015625
1760554527493090000,1.015090087890625,-1.111572265625,-0.32965087890625,0.0488739013671875
1760554527503094000,1.025093994140625,-1.131103515625,-0.272705078125,0.059356689453125
1760554527513099000,1.03509912109375,-1.1309356689453125,-0.253082275390625,0.0872344970703125
1760554527523103000,1.04510302734375,-1.1353912353515625,-0.313385009765625,0.1211700439453125
1760554527533107000,1.05510693359375,-1.06768798828125,-0.3590850830078125,0.1961212158203125
1760554527543112000,1.06511181640625,-0.98809814453125,-0.42608642578125,0.1980133056640625
1760554527553116200,1.0751162109375,-0.97125244140625,-0.4306793212890625,0.2234954833984375
1760554527563121200,1.08512109375,-0.9505615234375,-0.371795654296875,0.184539794921875
1760554527573125000,1.095125,-0.9752655029296875,-0.30877685546875,0.126953125
1760554527583129000,1.105129150390625,-0.9561614990234375,-0.266326904296875,0.1267852783203125
1760554527593134000,1.115134033203125,-0.9661865234375,-0.2617950439453125,0.1274261474609375
1760554527603138000,1.125137939453125,-1.038116455078125,-0.2426605224609375,0.1191558837890625
1760554527613143000,1.13514306640625,-1.0458984375,-0.217498779296875,0.112060546875
1760554527623147000,1.14514697265625,-1.0532989501953125,-0.229766845703125,0.12744140625
1760554527633151000,1.15515087890625,-1.0755462646484375,-0.232818603515625,0.1400146484375
1760554527643156000,1.165156005859375,-1.0721282958984375,-0.2488861083984375,0.1439971923828125
1760554527653160200,1.17516015625,-1.0646820068359375,-0.271759033203125,0.15997314453125
1760554527663165200,1.185165283203125,-1.0734100341796875,-0.2765350341796875,0.1712799072265625
1760554527673169200,1.195169189453125,-1.025421142578125,-0.25347900390625,0.1522064208984375
1760554527683173000,1.205173095703125,-0.836395263671875,-0.2799072265625,0.151153564453125
1760554527693178000,1.21517822265625,-1.112762451171875,-0.1814117431640625,-0.0098724365234375
1760554527703182000,1.22518212890625,-1.0618896484375,-0.113800048828125,0.27142333984375
1760554527713187000,1.23518701171875,-1.0127716064453125,-0.28228759765625,0.1177520751953125
1760554527723191000,1.24519091796875,-0.9918212890625,-0.1967315673828125,0.1075897216796875
1760554527733195000,1.255195068359375,-1.0345001220703125,-0.135009765625,0.20257568359375
1760554527743200000,1.265199951171875,-1.016876220703125,-0.1636962890625,0.1483001708984375
1760554527753204200,1.275204345703125,-1.009429931640625,-0.1562347412109375,0.1533203125
1760554527763209200,1.285209228515625,-0.99261474609375,-0.1666259765625,0.139373779296875
1760554527773213200,1.295213134765625,-0.975189208984375,-0.1803436279296875,0.161376953125
1760554527783217000,1.305216796875,-0.95111083984375,-0.19036865234375,0.175445556640625
1760554527793222000,1.315221923828125,-0.9000701904296875,-0.1914825439453125,0.143157958984375
1760554527803226000,1.32522607421875,-0.925323486328125,-0.182525634765625,0.1481170654296875
1760554527813231000,1.335231201171875,-0.994293212890625,-0.22259521484375,0.0654449462890625
1760554527823235000,1.345235107421875,-1.055450439453125,-0.2224884033203125,-0.003753662109375
1760554527833239000,1.355239013671875,-1.0597991943359375,-0.1786346435546875,0.0252532958984375
1760554527843244000,1.365244140625,-1.0617218017578125,-0.1151580810546875,0.0547943115234375
1760554527853248000,1.375248046875,-1.0156402587890625,-0.074920654296875,0.04376220703125
1760554527863253000,1.3852529296875,-0.89398193359375,-0.151153564453125,0.174468994140625
1760554527873257200,1.39525732421875,-0.934539794921875,-0.2198486328125,0.1692657470703125
1760554527883261000,1.405260986328125,-0.896209716796875,-0.14752197265625,0.070281982421875
1760554527893266000,1.415265869140625,-1.01556396484375,-0.165283203125,0.00897216796875
1760554527903270000,1.425269775390625,-1.06903076171875,-0.1895294189453125,0.024322509765625
1760554527913275000,1.43527490234375,-0.9886932373046875,-0.160369873046875,0.08050537109375
1760554527923279000,1.445279052734375,-0.9611053466796875,-0.186676025390625,0.1314849853515625
1760554527933283000,1.455282958984375,-0.9482269287109375,-0.2496185302734375,0.21246337890625
1760554527943288000,1.4652880859375,-0.9952239990234375,-0.2214202880859375,0.1550750732421875
1760554527953292000,1.4752919921875,-1.022735595703125,-0.2149810791015625,0.132904052734375
1760554527963297000,1.485297119140625,-1.009796142578125,-0.198333740234375,0.072601318359375
1760554527973301200,1.49530126953125,-0.9845733642578125,-0.2109527587890625,0.0209503173828125
1760554527983305000,1.505304931640625,-0.922210693359375,-0.2059326171875,0.031829833984375
1760554527993310000,1.51531005859375,-0.9125213623046875,-0.203338623046875,0.028594970703125
1760554528003314000,1.52531396484375,-0.944854736328125,-0.175445556640625,0.0416717529296875
1760554528013319000,1.53531884765625,-0.9290618896484375,-0.1818389892578125,0.04071044921875
1760554528023323100,1.5453232421875,-0.971282958984375,-0.158416748046875,0.0079193115234375
1760554528033327000,1.5553271484375,-1.1012725830078125,-0.166107177734375,0.0458526611328125
1760554528043332000,1.56533203125,-1.0332489013671875,-0.129119873046875,0.0710601806640625
1760554528053336000,1.575336181640625,-0.9372100830078125,-0.1253814697265625,0.0659027099609375
1760554528063341000,1.585341064453125,-0.94268798828125,-0.1689453125,0.0628509521484375
1760554528073345300,1.59534521484375,-0.960693359375,-0.3506317138671875,0.1633148193359375
1760554528083349000,1.605348876953125,-0.9874420166015625,-0.1131439208984375,0.0775604248046875
1760554528093354000,1.61535400390625,-1.038360595703125,-0.134063720703125,0.0524139404296875
1760554528103358000,1.62535791015625,-1.019134521484375,-0.1366424560546875,-0.020172119140625
1760554528113363000,1.635363037109375,-0.928466796875,-0.1021270751953125,-0.019256591796875
1760554528123367200,1.6453671875,-0.830810546875,-0.1171875,-0.01318359375
1760554528133371100,1.65537109375,-0.8027191162109375,-0.1270294189453125,0.0068206787109375
1760554528143376100,1.665376220703125,-0.7554473876953125,-0.06866455078125,-0.052825927734375
1760554528153380000,1.675380126953125,-0.48968505859375,-0.1048126220703125,-0.0638580322265625
1760554528163385000,1.685385009765625,-0.03289794921875,-0.0542755126953125,-0.0713348388671875
1760554528173389000,1.69538916015625,0.1483306884765625,0.0382843017578125,-0.0157928466796875
1760554528183393000,1.70539306640625,-2.7144622802734375,0.04248046875,0.7643585205078125
1760554528193398000,1.71539794921875,-0.8582305908203125,0.009429931640625,0.2266387939453125
1760554528203402000,1.725402099609375,-3.1190185546875,0.096099853515625,-0.098846435546875
1760554528213407000,1.735406982421875,-3.384246826171875,0.0159454345703125,-0.0520172119140625
1760554528223411200,1.7454111328125,1.5824127197265625,0.2579803466796875,0.034423828125
1760554528233415200,1.755415283203125,0.132110595703125,0.1521759033203125,0.006103515625
1760554528243420200,1.765420166015625,0.221649169921875,0.0313720703125,-0.0171051025390625
1760554528253424000,1.775424072265625,-4.828033447265625,-0.1987457275390625,0.1784820556640625
1760554528263429000,1.78542919921875,0.4053802490234375,0.0908203125,-0.04058837890625
1760554528273433000,1.79543310546875,0.116119384765625,0.0189056396484375,0.0148162841796875
1760554528283437000,1.80543701171875,-2.3973846435546875,-0.0302886962890625,0.024505615234375
1760554528293442300,1.8154423828125,-0.7938995361328125,-0.0099639892578125,-0.1036834716796875
1760554528303446000,1.825446044921875,-0.5696563720703125,0.0117645263671875,0.05810546875
1760554528313451000,1.835450927734375,-1.304107666015625,0.0135345458984375,0.096832275390625
1760554528323455000,1.845455078125,-1.1202239990234375,0.0423126220703125,-0.0420989990234375
1760554528333459200,1.855459228515625,-1.033203125,0.0260162353515625,-0.0044708251953125
1760554528343464200,1.865464111328125,-0.83636474609375,-0.00384521484375,0.107818603515625
1760554528353468200,1.87546826171875,-1.1144256591796875,0.018951416015625,0.027130126953125
1760554528363473200,1.88547314453125,-0.9318695068359375,0.0009765625,0.0440826416015625
1760554528373477000,1.89547705078125,-1.009521484375,0.0088653564453125,0.0258941650390625
1760554528383481300,1.9054814453125,-1.0008087158203125,0.0088653564453125,0.0169677734375
1760554528393486300,1.915486328125,-0.9976959228515625,0.0113372802734375,0.01220703125
1760554528403490000,1.925489990234375,-0.9993896484375,0.012451171875,0.01568603515625
1760554528413495000,1.9354951171875,-0.9987030029296875,0.0117645263671875,0.0230712890625
1760554528423499000,1.9454990234375,-1.00006103515625,0.0158233642578125,0.0299530029296875
1760554528433503200,1.955503173828125,-0.9984588623046875,0.0131072998046875,0.030548095703125
1760554528443508200,1.96550830078125,-0.99871826171875,0.0096282958984375,0.0283050537109375
1760554528453512200,1.97551220703125,-0.9991455078125,0.008514404296875,0.025177001953125
1760554528463517200,1.98551708984375,-0.997894287109375,0.004241943359375,0.0248870849609375
1760554528473521200,1.995521240234375,-0.997314453125,0.003387451171875,0.0248870849609375
1760554528483525000,2.005525146484375,-0.9979705810546875,0.0012969970703125,0.028472900390625
1760554528493530000,2.015530029296875,-0.9975738525390625,-0.0015716552734375,0.0292816162109375
1760554528503534000,2.0255341796875,-0.996917724609375,-0.0008392333984375,0.0300445556640625
1760554528513539000,2.0355390625,-0.9963836669921875,0.0022125244140625,0.0336151123046875
1760554528523543000,2.04554296875,-0.9972991943359375,0.0062713623046875,0.0323333740234375
1760554528533547300,2.05554736328125,-0.999298095703125,0.00921630859375,0.0232086181640625
1760554528543552300,2.06555224609375,-0.9979705810546875,0.0047149658203125,0.0164947509765625
1760554528553556200,2.07555615234375,-1.0002288818359375,0.0033416748046875,0.0107421875
1760554528563561200,2.085561279296875,-0.9970550537109375,0.0028076171875,0.011505126953125
1760554528573565200,2.095565185546875,-0.999603271484375,0.0038604736328125,0.0079498291015625
1760554528583569200,2.105569091796875,-0.998870849609375,0.00445556640625,0.010162353515625
1760554528593574100,2.11557421875,-0.9987335205078125,0.0039215087890625,0.0113372802734375
1760554528603578000,2.125578125,-0.9996490478515625,0.00469970703125,0.0140228271484375
1760554528613583000,2.1355830078125,-0.9983367919921875,0.0012359619140625,0.01422119140625
1760554528623587000,2.145587158203125,-0.99822998046875,-0.001495361328125,0.008209228515625
1760554528633591300,2.15559130859375,-0.99615478515625,-0.0050811767578125,0.015960693359375
1760554528643596300,2.16559619140625,-0.9960174560546875,-0.007080078125,0.0248565673828125
1760554528653600300,2.175600341796875,-0.994598388671875,-0.00421142578125,0.0327911376953125
1760554528663605200,2.185605224609375,-0.994293212890625,-0.000091552734375,0.039764404296875
1760554528673609200,2.195609130859375,-0.996124267578125,0.0059356689453125,0.0461883544921875
1760554528683613200,2.20561328125,-0.9987335205078125,0.0092620849609375,0.0473785400390625
1760554528693618200,2.2156181640625,-0.999237060546875,0.0134429931640625,0.0419158935546875
1760554528703622100,2.2256220703125,-1.000518798828125,0.0178070068359375,0.036865234375
1760554528713627100,2.235627197265625,-1.0042877197265625,0.02166748046875,0.023284912109375
1760554528723631000,2.245631103515625,-1.0058746337890625,0.0260467529296875,0.0099334716796875
1760554528733635000,2.255635009765625,-1.0034637451171875,0.0250701904296875,0.0140380859375
1760554528743640000,2.26564013671875,-1.002197265625,0.019073486328125,0.0225830078125
1760554528753644300,2.275644287109375,-0.999481201171875,0.012420654296875,0.0341644287109375
1760554528763649300,2.285649169921875,-0.997161865234375,0.0090179443359375,0.04327392578125
1760554528773653200,2.2956533203125,-0.99658203125,0.00640869140625,0.044403076171875
1760554528783657000,2.305656982421875,-0.9969482421875,0.0036468505859375,0.0473480224609375
1760554528793662000,2.315661865234375,-0.9959564208984375,0.0018157958984375,0.0453338623046875
1760554528803666200,2.325666259765625,-0.9967041015625,-0.00067138671875,0.0432586669921875
1760554528813671200,2.335671142578125,-0.997406005859375,0.002410888671875,0.0418701171875
1760554528823675100,2.345675048828125,-0.996429443359375,0.00445556640625,0.0369415283203125
1760554528833679000,2.35567919921875,-0.9980316162109375,0.0068817138671875,0.0305023193359375
1760554528843684000,2.36568408203125,-0.9986419677734375,0.0069427490234375,0.0266265869140625
1760554528853688300,2.375688232421875,-0.995361328125,0.00238037109375,0.025054931640625
1760554528863693300,2.385693359375,-0.9981689453125,0.0025482177734375,0.0240478515625
1760554528873697000,2.395697021484375,-0.9973297119140625,0.001495361328125,0.024688720703125
1760554528883701000,2.405700927734375,-0.996124267578125,0.0014801025390625,0.0280914306640625
1760554528893706000,2.4157060546875,-0.99774169921875,0.0031280517578125,0.0298614501953125
1760554528903710200,2.425710205078125,-0.9969635009765625,0.0014801025390625,0.03228759765625
1760554528913715200,2.435715087890625,-0.99871826171875,0.0024566650390625,0.0289459228515625
1760554528923719200,2.44571923828125,-0.996795654296875,0.005157470703125,0.0299530029296875
1760554528933723100,2.45572314453125,-0.998046875,0.006591796875,0.0281982421875
1760554528943728000,2.46572802734375,-0.997955322265625,0.0069732666015625,0.0218353271484375
1760554528953732400,2.475732421875,-0.9987945556640625,0.0074920654296875,0.018951416015625
1760554528963737300,2.4857373046875,-1.0004119873046875,0.0114898681640625,0.018218994140625
1760554528973741000,2.495740966796875,-1.0012359619140625,0.0155792236328125,0.020782470703125
1760554528983745000,2.5057451171875,-1.000579833984375,0.0162353515625,0.023468017578125
1760554528993750000,2.51575,-1.0019989013671875,0.017120361328125,0.029296875
1760554529003754200,2.525754150390625,-1.0002593994140625,0.0173797607421875,0.0273895263671875
1760554529013759200,2.53575927734375,-0.9990997314453125,0.0126495361328125,0.027313232421875
1760554529023763200,2.54576318359375,-0.9988250732421875,0.00970458984375,0.02886962890625
1760554529033767200,2.55576708984375,-0.9970550537109375,0.005218505859375,0.0266876220703125
1760554529043772200,2.565772216796875,-0.997894287109375,0.003021240234375,0.0198822021484375
1760554529053776400,2.5757763671875,-0.9983978271484375,0.004608154296875,0.0176544189453125
1760554529063780000,2.585780029296875,-0.99761962890625,0.0024871826171875,0.01983642578125
1760554529073785000,2.59578515625,-0.9976959228515625,0.0043487548828125,0.0206146240234375
1760554529083789000,2.6057890625,-0.997528076171875,0.00018310546875,0.0254669189453125
1760554529093794000,2.6157939453125,-0.9969482421875,0.0040435791015625,0.03118896484375
1760554529103798300,2.62579833984375,-0.9974517822265625,0.0033111572265625,0.0331878662109375
1760554529113802200,2.63580224609375,-0.9972076416015625,0.0046234130859375,0.042022705078125
1760554529123807200,2.64580712890625,-0.9976043701171875,0.0074920654296875,0.0442657470703125
1760554529133811200,2.655811279296875,-0.9985809326171875,0.007843017578125,0.0384368896484375
1760554529143816200,2.665816162109375,-0.99957275390625,0.00885009765625,0.0317535400390625
1760554529153820200,2.675820068359375,-0.9972686767578125,0.0074615478515625,0.0341949462890625
1760554529163824000,2.68582421875,-0.9975433349609375,0.0048370361328125,0.0329742431640625
1760554529173829000,2.6958291015625,-0.9965972900390625,0.005615234375,0.0333099365234375
1760554529183833000,2.7058330078125,-0.996185302734375,0.0019378662109375,0.0398406982421875
1760554529193838000,2.715838134765625,-0.9983367919921875,0.003326416015625,0.041015625
1760554529203842000,2.725842041015625,-0.9983062744140625,0.0059051513671875,0.0423431396484375
1760554529213846300,2.73584619140625,-0.99896240234375,0.006072998046875,0.0425262451171875
1760554529223851300,2.745851318359375,-0.9998931884765625,0.0074310302734375,0.0364227294921875
1760554529233855200,2.755855224609375,-0.9990997314453125,0.004791259765625,0.0352325439453125
1760554529243860200,2.765860107421875,-0.997222900390625,0.0034942626953125,0.0346221923828125
1760554529253864000,2.775864013671875,-0.9966583251953125,0.00372314453125,0.031951904296875
1760554529263868200,2.7858681640625,-0.9993133544921875,0.0082550048828125,0.03131103515625
1760554529273873200,2.795873046875,-1.0003662109375,0.00946044921875,0.029998779296875
1760554529283877000,2.805877197265625,-0.9989471435546875,0.0083770751953125,0.0315399169921875
1760554529293882600,2.815882568359375,-0.9990386962890625,0.00811767578125,0.0301055908203125
1760554529303886300,2.82588623046875,-0.99945068359375,0.0086517333984375,0.028778076171875
1760554529313890600,2.835890625,-0.9988861083984375,0.0030364990234375,0.0281219482421875
1760554529323895600,2.8458955078125,-0.9969635009765625,0.000579833984375,0.0271453857421875
1760554529333899500,2.8558994140625,-0.996978759765625,-0.0002899169921875,0.02716064453125
1760554529343904500,2.865904541015625,-0.997100830078125,0.0037841796875,0.0289764404296875
1760554529353908500,2.875908447265625,-0.996337890625,0.00341796875,0.0331878662109375
1760554529363912700,2.88591259765625,-0.9982147216796875,0.0081024169921875,0.03875732421875
1760554529373917700,2.895917724609375,-1.0000457763671875,0.0097808837890625,0.042327880859375
1760554529383921700,2.905921630859375,-0.9985809326171875,0.010528564453125,0.0434112548828125
1760554529393926700,2.9159267578125,-1.0006561279296875,0.0126953125,0.0407867431640625
1760554529403930400,2.925930419921875,-1.0019683837890625,0.0154571533203125,0.0365142822265625
1760554529413934600,2.9359345703125,-0.999267578125,0.01446533203125,0.0347137451171875
1760554529423939600,2.945939697265625,-0.9992828369140625,0.0113983154296875,0.0294342041015625
1760554529433943600,2.955943603515625,-0.9983978271484375,0.008331298828125,0.0267181396484375
1760554529443948500,2.965948486328125,-0.9967041015625,0.0052337646484375,0.027191162109375
1760554529453952500,2.975952392578125,-0.9964141845703125,0.0047607421875,0.0294342041015625
1760554529463956500,2.98595654296875,-0.9979705810546875,0.00482177734375,0.02471923828125
1760554529473961500,2.99596142578125,-0.998077392578125,0.005645751953125,0.027984619140625
1760554529483965700,3.005965576171875,-0.9976959228515625,0.005279541015625,0.02764892578125
1760554529493970700,3.015970703125,-0.99859619140625,0.0060882568359375,0.0234222412109375
1760554529503974400,3.025974365234375,-0.998626708984375,0.005645751953125,0.0225830078125
1760554529513978400,3.035978271484375,-0.9984283447265625,0.00433349609375,0.021484375
1760554529523983400,3.0459833984375,-0.997344970703125,0.0065765380859375,0.022857666015625
1760554529533987600,3.055987548828125,-0.9992828369140625,0.0078125,0.0255584716796875
1760554529543992600,3.06599267578125,-0.9986572265625,0.008880615234375,0.0270233154296875
1760554529553996500,3.07599658203125,-0.998687744140625,0.0094451904296875,0.0315704345703125
1760554529564000500,3.08600048828125,-0.99969482421875,0.0153045654296875,0.0341339111328125
1760554529574005500,3.096005615234375,-1.00018310546875,0.01336669921875,0.0326080322265625
1760554529584009500,3.106009521484375,-0.9980316162109375,0.01190185546875,0.0345458984375
1760554529594014700,3.1160146484375,-1.0003204345703125,0.0118865966796875,0.0359954833984375
1760554529604018400,3.126018310546875,-1.0004730224609375,0.0094146728515625,0.0349578857421875
1760554529614022400,3.1360224609375,-0.9979400634765625,0.009674072265625,0.0318450927734375
1760554529624027400,3.14602734375,-0.99853515625,0.0098876953125,0.0308837890625
1760554529634031600,3.156031494140625,-0.9991455078125,0.0100555419921875,0.0301971435546875
1760554529644036600,3.16603662109375,-0.99896240234375,0.009307861328125,0.02783203125
1760554529654040600,3.17604052734375,-0.99896240234375,0.00616455078125,0.0287322998046875
1760554529664044500,3.18604443359375,-0.99774169921875,0.006195068359375,0.025787353515625
1760554529674049500,3.196049560546875,-0.9987640380859375,0.0058441162109375,0.0279083251953125
1760554529684053500,3.206053466796875,-0.9996490478515625,0.00531005859375,0.029327392578125
1760554529694057500,3.216057373046875,-0.997802734375,0.00384521484375,0.0326995849609375
1760554529704062500,3.2260625,-0.9980621337890625,0.0059967041015625,0.0291595458984375
1760554529714066400,3.23606640625,-0.997222900390625,0.0029449462890625,0.03045654296875
1760554529724071400,3.246071533203125,-0.99798583984375,0.002532958984375,0.0286407470703125
1760554529734075600,3.25607568359375,-0.9969482421875,0.0024871826171875,0.0289764404296875
1760554529744080600,3.26608056640625,-0.9976348876953125,0.0039825439453125,0.0293121337890625
1760554529754084600,3.276084716796875,-0.998443603515625,0.003143310546875,0.0308837890625
1760554529764088600,3.286088623046875,-0.9966278076171875,0.0030517578125,0.031494140625
1760554529774093600,3.296093505859375,-0.99639892578125,0.0037689208984375,0.0316162109375
1760554529784097500,3.30609765625,-0.998565673828125,0.005645751953125,0.0258636474609375
1760554529794101500,3.3161015625,-0.996673583984375,0.0072479248046875,0.02935791015625
1760554529804106500,3.3261064453125,-0.9969329833984375,0.0086669921875,0.028411865234375
1760554529814110500,3.3361103515625,-0.9979095458984375,0.007659912109375,0.0258636474609375
1760554529824115500,3.346115478515625,-0.9991607666015625,0.008331298828125,0.026336669921875
1760554529834119700,3.35611962890625,-0.998321533203125,0.008514404296875,0.027801513671875
1760554529844123600,3.36612353515625,-0.9993133544921875,0.0085906982421875,0.0286102294921875
1760554529854128600,3.376128662109375,-1.000335693359375,0.008697509765625,0.028106689453125
1760554529864132600,3.386132568359375,-0.9991607666015625,0.009765625,0.030792236328125
1760554529874137600,3.3961376953125,-0.998382568359375,0.0078125,0.0259246826171875
1760554529884141600,3.4061416015625,-0.9983062744140625,0.0050506591796875,0.02862548828125
1760554529894145500,3.4161455078125,-0.9992828369140625,0.0060882568359375,0.025726318359375
1760554529904150500,3.426150634765625,-0.9985504150390625,0.0049591064453125,0.026519775390625
1760554529914154500,3.436154541015625,-0.996826171875,0.0039520263671875,0.0290985107421875
1760554529924159500,3.446159423828125,-0.9973297119140625,-0.0001373291015625,0.027862548828125
1760554529934163500,3.45616357421875,-0.9954986572265625,-0.00030517578125,0.0301055908203125
1760554529944167700,3.466167724609375,-0.995941162109375,-0.0004425048828125,0.0328521728515625
1760554529954172700,3.476172607421875,-0.9979095458984375,0.0029754638671875,0.032135009765625
1760554529964176400,3.48617626953125,-0.99798583984375,0.00323486328125,0.0291290283203125
1760554529974181400,3.496181396484375,-0.9971771240234375,0.0040130615234375,0.034088134765625
1760554529984185300,3.506185302734375,-0.9973297119140625,0.006011962890625,0.034027099609375
1760554529994189600,3.516189453125,-0.9975433349609375,0.007049560546875,0.0316619873046875
1760554530004194600,3.526194580078125,-0.9983367919921875,0.0095977783203125,0.028564453125
1760554530014198500,3.536198486328125,-1.00115966796875,0.0118408203125,0.029754638671875
1760554530024203500,3.54620361328125,-1.000823974609375,0.01458740234375,0.0321807861328125
1760554530034207500,3.55620751953125,-1.0005035400390625,0.016143798828125,0.032073974609375
1760554530044211700,3.566211669921875,-0.99896240234375,0.0114593505859375,0.0313873291015625
1760554530054216700,3.576216796875,-0.9980316162109375,0.009613037109375,0.030426025390625
1760554530064220400,3.586220458984375,-0.9969482421875,0.005584716796875,0.0278167724609375
1760554530074225400,3.596225341796875,-0.997650146484375,0.0073089599609375,0.0238037109375
1760554530084229400,3.6062294921875,-0.999267578125,0.0099029541015625,0.02313232421875
1760554530094233600,3.616233642578125,-0.998046875,0.0087890625,0.025787353515625
1760554530104238600,3.626238525390625,-1.0001373291015625,0.010040283203125,0.0276031494140625
1760554530114242600,3.63624267578125,-0.9990386962890625,0.0112762451171875,0.028350830078125
1760554530124247600,3.64624755859375,-1.000213623046875,0.01007080078125,0.0301055908203125
1760554530134251500,3.65625146484375,-0.99981689453125,0.0086669921875,0.0307464599609375
1760554530144255700,3.666255859375,-0.9976654052734375,0.009368896484375,0.0293426513671875
1760554530154260700,3.6762607421875,-0.9975128173828125,0.0061798095703125,0.034942626953125
1760554530164264400,3.686264404296875,-0.9964599609375,0.0057220458984375,0.03436279296875
1760554530174269400,3.69626953125,-0.9964599609375,0.0049896240234375,0.0359954833984375
1760554530184273400,3.7062734375,-0.9957122802734375,0.002899169921875,0.038726806640625
1760554530194277600,3.716277587890625,-0.99542236328125,0.0003662109375,0.0421905517578125
1760554530204282600,3.72628271484375,-0.99530029296875,0.0028839111328125,0.0407257080078125
1760554530214286600,3.73628662109375,-0.9965667724609375,0.0041656494140625,0.0348968505859375
1760554530224291600,3.74629150390625,-0.9958648681640625,0.00531005859375,0.0359344482421875
1760554530234295600,3.756295654296875,-0.99786376953125,0.007354736328125,0.0369720458984375
1760554530244299500,3.766299560546875,-0.99810791015625,0.0073089599609375,0.0289459228515625
1760554530254304500,3.776304443359375,-0.9992523193359375,0.0102996826171875,0.0249786376953125
1760554530264308500,3.78630859375,-0.999053955078125,0.0125732421875,0.0267791748046875
1760554530274313500,3.7963134765625,-0.999786376953125,0.016265869140625,0.023681640625
1760554530284317400,3.8063173828125,-0.9982757568359375,0.0165863037109375,0.0225067138671875
1760554530294321000,3.81632080078125,-1.0001220703125,0.017486572265625,0.0240478515625
1760554530304326000,3.826325927734375,-1.0010986328125,0.0170745849609375,0.0254974365234375
1760554530314329900,3.836329833984375,-1.00091552734375,0.0165252685546875,0.0232391357421875
1760554530324333800,3.846333740234375,-0.9986572265625,0.0176544189453125,0.0229339599609375
1760554530334338800,3.8563388671875,-1.001068115234375,0.0159149169921875,0.02642822265625
1760554530344342800,3.8663427734375,-1.00054931640625,0.01605224609375,0.026092529296875
1760554530354347800,3.87634765625,-0.999359130859375,0.0173797607421875,0.0282135009765625
1760554530364351700,3.886351806640625,-1.0000457763671875,0.0167388916015625,0.0299835205078125
1760554530374355700,3.896355712890625,-0.998931884765625,0.017669677734375,0.0271759033203125
1760554530384360700,3.906360595703125,-1.0001068115234375,0.016387939453125,0.02703857421875
1760554530394365000,3.916364990234375,-0.9990386962890625,0.0145263671875,0.0316619873046875
1760554530404370000,3.926369873046875,-0.9976348876953125,0.013397216796875,0.034149169921875
1760554530414374000,3.936373779296875,-0.99713134765625,0.0116729736328125,0.0384063720703125
1760554530424377900,3.9463779296875,-0.9984130859375,0.0123138427734375,0.035919189453125
1760554530434382800,3.9563828125,-0.996978759765625,0.0099334716796875,0.0334320068359375
1760554530444386800,3.96638671875,-0.9991302490234375,0.010406494140625,0.0344696044921875
1760554530454391800,3.976391845703125,-0.9996490478515625,0.010101318359375,0.0278472900390625
1760554530464395800,3.986395751953125,-0.997039794921875,0.0084228515625,0.028076171875
1760554530474399000,3.99639892578125,-0.998016357421875,0.0077056884765625,0.028076171875
1760554530484403000,4.00640283203125,-0.9983367919921875,0.0086669921875,0.02972412109375
1760554530494408000,4.016407958984375,-0.9986419677734375,0.008392333984375,0.029998779296875
1760554530504412000,4.026411865234375,-0.99615478515625,0.005889892578125,0.0283660888671875
1760554530514415600,4.03641552734375,-0.997039794921875,0.0052032470703125,0.0319976806640625
1760554530524420900,4.0464208984375,-0.9969635009765625,0.009124755859375,0.0310516357421875
1760554530534424800,4.0564248046875,-0.996826171875,0.00897216796875,0.02655029296875
1760554530544429800,4.066429931640625,-0.99749755859375,0.0076446533203125,0.0279693603515625
1760554530554433800,4.076433837890625,-0.9968414306640625,0.0107269287109375,0.0313568115234375
1760554530564437800,4.086437744140625,-0.9984893798828125,0.0124969482421875,0.0326690673828125
1760554530574442800,4.09644287109375,-1.0000762939453125,0.0137481689453125,0.03057861328125
1760554530584447000,4.106447021484375,-0.9974517822265625,0.0123138427734375,0.0338592529296875
1760554530594452000,4.116451904296875,-0.9990692138671875,0.014190673828125,0.03533935546875
1760554530604455700,4.12645556640625,-0.9998931884765625,0.0174713134765625,0.0373382568359375
1760554530614459600,4.136459716796875,-0.9998779296875,0.0173187255859375,0.03265380859375
1760554530624464600,4.146464599609375,-0.9987030029296875,0.017120361328125,0.034027099609375
1760554530634468900,4.15646875,-0.9987335205078125,0.0185699462890625,0.03411865234375
1760554530644473900,4.166473876953125,-0.999664306640625,0.0186920166015625,0.0323028564453125
1760554530654477800,4.176477783203125,-0.999786376953125,0.0169830322265625,0.032867431640625
1760554530664481800,4.186481689453125,-0.9982147216796875,0.016693115234375,0.0377960205078125
1760554530674486800,4.19648681640625,-0.99658203125,0.0131072998046875,0.041015625
1760554530684491000,4.206490966796875,-0.9962005615234375,0.01263427734375,0.04278564453125
1760554530694496000,4.21649609375,-0.995849609375,0.008148193359375,0.0420684814453125
1760554530704499700,4.226499755859375,-0.9971771240234375,0.0093231201171875,0.039459228515625
1760554530714503700,4.236503662109375,-0.9968719482421875,0.0083465576171875,0.0386810302734375
1760554530724508700,4.2465087890625,-0.9964141845703125,0.00799560546875,0.0386962890625
1760554530734513000,4.256512939453125,-0.999176025390625,0.01458740234375,0.0396270751953125
1760554530744516900,4.266516845703125,-0.9977874755859375,0.012176513671875,0.0353546142578125
1760554530754521900,4.27652197265625,-0.99749755859375,0.0129547119140625,0.0341949462890625
1760554530764525800,4.28652587890625,-0.997833251953125,0.014678955078125,0.03515625
1760554530774530800,4.29653076171875,-0.9979248046875,0.0156707763671875,0.0323638916015625
1760554530784535000,4.30653515625,-0.9995269775390625,0.01556396484375,0.0349273681640625
1760554530794538800,4.316538818359375,-0.99969482421875,0.01617431640625,0.036346435546875
1760554530804543700,4.326543701171875,-0.9986114501953125,0.0188446044921875,0.0377044677734375
1760554530814547700,4.336547607421875,-0.998077392578125,0.0197601318359375,0.0380706787109375
1760554530824552700,4.346552734375,-0.998809814453125,0.019012451171875,0.0380401611328125
1760554530834557000,4.356556884765625,-0.9984893798828125,0.016815185546875,0.03558349609375
1760554530844562700,4.366562744140625,-0.9980926513671875,0.0199432373046875,0.0352935791015625
1760554530854567000,4.37656689453125,-1.0006103515625,0.019287109375,0.0363006591796875
1760554530864571000,4.38657080078125,-0.9976043701171875,0.017547607421875,0.0374298095703125
1760554530874576000,4.396575927734375,-0.998870849609375,0.01800537109375,0.03961181640625
1760554530884579800,4.406579833984375,-0.99774169921875,0.0196685791015625,0.039459228515625
1760554530894584800,4.416584716796875,-0.9980926513671875,0.0176849365234375,0.037200927734375
1760554530904588800,4.4265888671875,-0.9982452392578125,0.0207366943359375,0.0371856689453125
1760554530914592800,4.4365927734375,-0.998779296875,0.02069091796875,0.0339202880859375
1760554530924597800,4.44659765625,-0.9987945556640625,0.019744873046875,0.033172607421875
1760554530934601700,4.456601806640625,-0.99951171875,0.020355224609375,0.0323028564453125
1760554530944606700,4.466606689453125,-0.9975738525390625,0.02117919921875,0.0350341796875
1760554530954611000,4.47661083984375,-0.9991912841796875,0.019287109375,0.0351104736328125
1760554530964615000,4.486614990234375,-0.9972686767578125,0.019622802734375,0.036651611328125
1760554530974620000,4.496619873046875,-0.996917724609375,0.0192718505859375,0.03826904296875
1760554530984623900,4.506623779296875,-0.9975738525390625,0.01434326171875,0.0372314453125
1760554530994628900,4.51662890625,-0.9977874755859375,0.0138397216796875,0.0360565185546875
1760554531004632800,4.5266328125,-0.9969940185546875,0.0135955810546875,0.0339813232421875
1760554531014636800,4.53663671875,-0.9971923828125,0.013702392578125,0.0311126708984375
1760554531024641800,4.546641845703125,-0.9970550537109375,0.014862060546875,0.0318145751953125
1760554531034645800,4.556645751953125,-0.9984283447265625,0.0161285400390625,0.0298309326171875
1760554531044649700,4.566649658203125,-0.99822998046875,0.0177459716796875,0.029876708984375
1760554531054654700,4.57665478515625,-0.997894287109375,0.0199127197265625,0.031463623046875
1760554531064659000,4.586658935546875,-0.9987640380859375,0.0188140869140625,0.0322265625
1760554531074664000,4.596663818359375,-0.9985809326171875,0.018707275390625,0.0329742431640625
1760554531084668000,4.60666796875,-0.9997406005859375,0.0172271728515625,0.0335693359375
1760554531094673000,4.6166728515625,-0.99871826171875,0.0173797607421875,0.037109375
1760554531104676600,4.626676513671875,-0.997467041015625,0.0163421630859375,0.0356292724609375
1760554531114680800,4.636680908203125,-0.998382568359375,0.014678955078125,0.032928466796875
1760554531124685800,4.646685791015625,-0.998870849609375,0.0136566162109375,0.0357208251953125
1760554531134689800,4.656689697265625,-0.9989013671875,0.0134124755859375,0.0343780517578125
1760554531144694800,4.66669482421875,-0.9998321533203125,0.0152130126953125,0.032562255859375
1760554531154698800,4.67669873046875,-0.9980926513671875,0.01318359375,0.03326416015625
1760554531164703000,4.686702880859375,-0.9970245361328125,0.0119476318359375,0.030364990234375
1760554531174708000,4.6967080078125,-0.997314453125,0.0108642578125,0.0326080322265625
1760554531184712000,4.7067119140625,-0.9971160888671875,0.0114898681640625,0.0311126708984375
1760554531194715600,4.716715576171875,-0.99908447265625,0.0095672607421875,0.0310211181640625
1760554531204720600,4.726720703125,-0.99835205078125,0.012237548828125,0.0308837890625
1760554531214724900,4.736724853515625,-0.9984283447265625,0.011932373046875,0.0289154052734375
1760554531224729900,4.746729736328125,-0.9987030029296875,0.0112762451171875,0.030609130859375
1760554531234733800,4.75673388671875,-0.997161865234375,0.0121307373046875,0.03082275390625
1760554531244737800,4.76673779296875,-0.9972991943359375,0.0079803466796875,0.0322265625
1760554531254742800,4.77674267578125,-0.9963836669921875,0.0062255859375,0.0310516357421875
1760554531264747000,4.7867470703125,-0.9993438720703125,0.0082855224609375,0.0297698974609375
1760554531274752000,4.796751953125,-0.9976959228515625,0.00640869140625,0.0278472900390625
1760554531284755700,4.806755615234375,-0.997314453125,0.0081329345703125,0.0283966064453125
1760554531294760400,4.816760498046875,-0.9976654052734375,0.0107879638671875,0.0333404541015625
1760554531304765400,4.826765380859375,-0.9994049072265625,0.0106048583984375,0.021270751953125
1760554531314769400,4.836769287109375,-0.9988555908203125,0.0129547119140625,0.0291595458984375
1760554531324774400,4.8467744140625,-1.0003662109375,0.014739990234375,0.0305023193359375
1760554531334778600,4.856778564453125,-0.9994659423828125,0.0144805908203125,0.0293426513671875
1760554531344782600,4.866782470703125,-0.99981689453125,0.0178680419921875,0.0314483642578125
1760554531354787600,4.87678759765625,-0.99908447265625,0.01470947265625,0.0300140380859375
1760554531364791600,4.88679150390625,-0.998260498046875,0.0134124755859375,0.0311737060546875
1760554531374796500,4.896796630859375,-0.9973602294921875,0.0107574462890625,0.029693603515625
1760554531384800800,4.90680078125,-0.997711181640625,0.0119476318359375,0.0276641845703125
1760554531394804500,4.916804443359375,-0.9980316162109375,0.0148162841796875,0.026885986328125
1760554531404809500,4.9268095703125,-0.999725341796875,0.010711669921875,0.026763916015625
1760554531414813400,4.9368134765625,-1.0001220703125,0.010711669921875,0.0267181396484375
1760554531424818400,4.946818359375,-0.9991455078125,0.0130767822265625,0.027862548828125
1760554531434822700,4.95682275390625,-0.9985198974609375,0.0108642578125,0.0295257568359375
1760554531444826600,4.96682666015625,-0.997528076171875,0.0111541748046875,0.028106689453125
1760554531454831600,4.97683154296875,-0.99798583984375,0.0107269287109375,0.0276031494140625
1760554531464835600,4.986835693359375,-0.9983978271484375,0.010894775390625,0.0255279541015625
1760554531474840600,4.996840576171875,-0.9976806640625,0.011016845703125,0.02545166015625
1760554531484844800,5.0068447265625,-0.9983062744140625,0.011932373046875,0.02508544921875
1760554531494848500,5.0168486328125,-0.9983062744140625,0.013092041015625,0.0245361328125
1760554531504853500,5.026853515625,-0.997650146484375,0.0131378173828125,0.02166748046875
1760554531514857500,5.036857421875,-0.9990692138671875,0.0137939453125,0.0220184326171875
1760554531524862500,5.046862548828125,-0.99981689453125,0.01470947265625,0.021514892578125
1760554531534866700,5.05686669921875,-0.9993133544921875,0.0134124755859375,0.0199127197265625
1760554531544870700,5.06687060546875,-0.99853515625,0.0136566162109375,0.0184173583984375
1760554531554875600,5.076875732421875,-0.9991302490234375,0.0121307373046875,0.0215911865234375
1760554531564879600,5.086879638671875,-0.9972686767578125,0.008392333984375,0.02044677734375
1760554531574884600,5.096884521484375,-0.9972686767578125,0.0099334716796875,0.021575927734375
1760554531584888600,5.106888671875,-0.998443603515625,0.013427734375,0.0224609375
1760554531594892500,5.116892578125,-0.998626708984375,0.0115814208984375,0.0234832763671875
1760554531604897500,5.1268974609375,-0.998687744140625,0.0116119384765625,0.0240936279296875
1760554531614901500,5.136901611328125,-0.9978790283203125,0.0148162841796875,0.0234375
1760554531624906500,5.146906494140625,-0.998992919921875,0.0137786865234375,0.026031494140625
1760554531634910500,5.156910400390625,-0.99786376953125,0.0144805908203125,0.0254669189453125
1760554531644914700,5.166914794921875,-0.998199462890625,0.016571044921875,0.0252227783203125
1760554531654919700,5.176919677734375,-1.0001220703125,0.0161590576171875,0.024749755859375
1760554531664923600,5.186923583984375,-1.00115966796875,0.0169677734375,0.0207061767578125
1760554531674928600,5.1969287109375,-0.9996337890625,0.0151824951171875,0.018524169921875
1760554531684932400,5.206932373046875,-1.000335693359375,0.015167236328125,0.01629638671875
1760554531694936600,5.2169365234375,-0.999359130859375,0.01617431640625,0.0157470703125
1760554531704941600,5.226941650390625,-0.9991607666015625,0.0154876708984375,0.016845703125
1760554531714945500,5.236945556640625,-0.9985809326171875,0.0146026611328125,0.01934814453125
1760554531724950500,5.246950439453125,-0.9996490478515625,0.0128936767578125,0.0193634033203125
1760554531734954500,5.25695458984375,-0.99859619140625,0.0103302001953125,0.018341064453125
1760554531744958700,5.266958740234375,-0.99578857421875,0.0086212158203125,0.016632080078125
1760554531754963700,5.276963623046875,-0.9966278076171875,0.00823974609375,0.0154876708984375
1760554531764967700,5.2869677734375,-0.995880126953125,0.0067901611328125,0.0164947509765625
1760554531774972700,5.29697265625,-0.9969940185546875,0.0084381103515625,0.0162506103515625
1760554531784976400,5.306976318359375,-0.99700927734375,0.010040283203125,0.0176239013671875
1760554531794980600,5.316980712890625,-0.9974822998046875,0.010894775390625,0.01861572265625
1760554531804985600,5.326985595703125,-0.9996337890625,0.0120849609375,0.018829345703125
1760554531814989600,5.336989501953125,-1.0004730224609375,0.0128326416015625,0.0186004638671875
1760554531824994600,5.34699462890625,-0.9981231689453125,0.01068115234375,0.018707275390625
1760554531834998500,5.35699853515625,-0.997802734375,0.010986328125,0.0161590576171875
1760554531845002800,5.367002685546875,-0.9979705810546875,0.007110595703125,0.015777587890625
1760554531855007700,5.3770078125,-0.9973602294921875,0.0069580078125,0.0146636962890625
1760554531865011500,5.387011474609375,-0.9972991943359375,0.0088653564453125,0.0162353515625
1760554531875015400,5.397015380859375,-0.9966888427734375,0.0077667236328125,0.0179901123046875
1760554531885020400,5.4070205078125,-0.99658203125,0.0069427490234375,0.0184173583984375
1760554531895024600,5.417024658203125,-0.997161865234375,0.0109710693359375,0.02044677734375
1760554531905029600,5.427029541015625,-0.9984130859375,0.0098876953125,0.019866943359375
1760554531915033600,5.43703369140625,-0.9984588623046875,0.0117950439453125,0.0206451416015625
1760554531925037600,5.44703759765625,-0.998992919921875,0.0146026611328125,0.0192718505859375
1760554531935042600,5.45704248046875,-0.9986572265625,0.013031005859375,0.019378662109375
1760554531945046800,5.467046875,-0.99810791015625,0.0108795166015625,0.0190887451171875
1760554531955051800,5.4770517578125,-0.999298095703125,0.0137481689453125,0.01800537109375
1760554531965055500,5.487055419921875,-0.9992828369140625,0.0145416259765625,0.0216522216796875
1760554531975059500,5.4970595703125,-0.99884033203125,0.01202392578125,0.019134521484375
1760554531985064400,5.507064453125,-0.996673583984375,0.0099639892578125,0.01397705078125
1760554531995068700,5.517068603515625,-0.997406005859375,0.00689697265625,0.0109100341796875
1760554532005073700,5.52707373046875,-0.9981231689453125,0.0069580078125,0.0103607177734375
1760554532015077600,5.53707763671875,-0.996734619140625,0.0047454833984375,0.0094146728515625
1760554532025081600,5.54708154296875,-0.9976806640625,0.0043487548828125,0.007781982421875
1760554532035086600,5.557086669921875,-0.998046875,0.004638671875,0.00933837890625
1760554532045090600,5.567090576171875,-0.9968719482421875,0.0054779052734375,0.0059356689453125
1760554532055095600,5.577095458984375,-0.997528076171875,0.0102081298828125,0.004302978515625
1760554532065099500,5.587099609375,-0.9998626708984375,0.011474609375,0.0050048828125
1760554532075103500,5.597103515625,-0.998992919921875,0.0137481689453125,0.0057373046875
1760554532085108500,5.6071083984375,-0.9982452392578125,0.0161895751953125,0.0047454833984375
1760554532095112400,5.617112548828125,-1.000823974609375,0.01708984375,0.0062103271484375
1760554532105117400,5.627117431640625,-1.0003204345703125,0.0164794921875,0.0067596435546875
1760554532115121700,5.63712158203125,-1.000518798828125,0.016815185546875,0.0099029541015625
1760554532125125600,5.647125732421875,-1.0007171630859375,0.0147857666015625,0.00885009765625
1760554532135130600,5.657130615234375,-0.9996337890625,0.0137481689453125,0.006317138671875
1760554532145134300,5.66713427734375,-0.997955322265625,0.0149078369140625,0.0068817138671875
1760554532155139600,5.6771396484375,-0.9983673095703125,0.0126800537109375,0.0064849853515625
1760554532165143600,5.6871435546875,-0.99810791015625,0.0107879638671875,0.005706787109375
1760554532175147500,5.6971474609375,-0.998504638671875,0.0111846923828125,0.00732421875
1760554532185152500,5.707152587890625,-0.9978790283203125,0.0134735107421875,0.0100555419921875
1760554532195156500,5.717156494140625,-0.9986114501953125,0.0133819580078125,0.0118560791015625
1760554532205161500,5.727161376953125,-0.9997711181640625,0.0146331787109375,0.00592041015625
1760554532215165700,5.737165771484375,-0.9989013671875,0.0140228271484375,0.0040740966796875
1760554532225169700,5.747169677734375,-1.0016632080078125,0.0141754150390625,0.0020294189453125
1760554532235174700,5.757174560546875,-0.9990997314453125,0.0130615234375,-0.0001373291015625
1760554532245178400,5.767178466796875,-0.9991455078125,0.014862060546875,-0.0019073486328125
1760554532255183400,5.777183349609375,-1.0001068115234375,0.01629638671875,-0.00665283203125
1760554532265187600,5.7871875,-0.99981689453125,0.0137939453125,-0.005035400390625
1760554532275191600,5.797191650390625,-0.99798583984375,0.012786865234375,-0.0037689208984375
1760554532285196500,5.807196533203125,-0.999908447265625,0.0131072998046875,0.0010833740234375
1760554532295199700,5.81719970703125,-0.999542236328125,0.015350341796875,0.00439453125
1760554532305203700,5.82720361328125,-0.996429443359375,0.0124664306640625,0.0049896240234375
1760554532315208700,5.837208740234375,-0.998565673828125,0.011749267578125,0.0027923583984375
1760554532325212700,5.847212646484375,-0.9968414306640625,0.0109710693359375,0.0096588134765625
1760554532335217700,5.8572177734375,-0.9969482421875,0.0116424560546875,0.0112457275390625
1760554532345221600,5.8672216796875,-0.998565673828125,0.0110626220703125,0.0113525390625
1760554532355225900,5.877225830078125,-0.9985198974609375,0.0123748779296875,0.008941650390625
1760554532365230800,5.88723095703125,-0.9976959228515625,0.0107421875,0.007781982421875
1760554532375234600,5.897234619140625,-0.9980926513671875,0.009033203125,0.005035400390625
1760554532385239600,5.907239501953125,-0.9979705810546875,0.006988525390625,0.001220703125
1760554532395243500,5.917243408203125,-0.9964599609375,0.0078125,-0.0009307861328125
1760554532405247700,5.927247802734375,-0.9965972900390625,0.008544921875,-0.0005340576171875
1760554532415252700,5.937252685546875,-0.998382568359375,0.01092529296875,0.0003204345703125
1760554532425256700,5.947256591796875,-0.997161865234375,0.0108642578125,-0.00079345703125
1760554532435261700,5.95726171875,-0.9976348876953125,0.009368896484375,-0.0030059814453125
1760554532445265700,5.967265625,-0.9966888427734375,0.0122833251953125,0.00347900390625
1760554532455269600,5.97726953125,-0.9982757568359375,0.0147705078125,0.0004425048828125
1760554532465275000,5.98727490234375,-0.9990386962890625,0.017059326171875,-0.002532958984375
1760554532475278600,5.997278564453125,-0.9984130859375,0.0174713134765625,-0.001708984375
1760554532485283600,6.00728369140625,-0.998291015625,0.01910400390625,0.0030364990234375
1760554532495287600,6.01728759765625,-1.0010528564453125,0.02203369140625,0.0046844482421875
1760554532505291800,6.027291748046875,-1.0001068115234375,0.022247314453125,0.00494384765625
1760554532515296800,6.037296875,-1.00091552734375,0.0244140625,0.0079345703125
1760554532525300700,6.04730078125,-0.9997711181640625,0.0239410400390625,0.0065155029296875
1760554532535305700,6.0573056640625,-0.9994354248046875,0.021759033203125,0.0072021484375
1760554532545309700,6.067309814453125,-0.9986724853515625,0.0211944580078125,0.0038299560546875
1760554532555313700,6.077313720703125,-0.997772216796875,0.0202178955078125,0.00360107421875
1760554532565318700,6.087318603515625,-0.99871826171875,0.0130462646484375,0.003143310546875
1760554532575322600,6.097322509765625,-0.9982452392578125,0.013946533203125,0.001434326171875
1760554532585327600,6.10732763671875,-0.99920654296875,0.0150604248046875,0.0024261474609375
1760554532595331600,6.11733154296875,-0.9983673095703125,0.0153350830078125,0.000030517578125
1760554532605335800,6.127335693359375,-0.9982147216796875,0.0175018310546875,-0.001312255859375
1760554532615340800,6.1373408203125,-0.9986572265625,0.0196990966796875,-0.0011138916015625
1760554532625344800,6.1473447265625,-0.998779296875,0.019866943359375,-0.00140380859375
1760554532635349800,6.157349853515625,-0.996826171875,0.02105712890625,-0.005096435546875
1760554532645353700,6.167353759765625,-0.9988250732421875,0.01971435546875,-0.0019073486328125
1760554532655357700,6.177357666015625,-0.998992919921875,0.020965576171875,0.0021514892578125
1760554532665362700,6.18736279296875,-0.999725341796875,0.019012451171875,0.0013275146484375
1760554532675366700,6.19736669921875,-0.999053955078125,0.0202484130859375,0.001953125
1760554532685371600,6.20737158203125,-1.000457763671875,0.0207061767578125,0.0038299560546875
1760554532695375600,6.217375732421875,-0.998992919921875,0.0190887451171875,0.0028228759765625
1760554532705379800,6.2273798828125,-0.9998779296875,0.0163421630859375,0.0070953369140625
1760554532715384800,6.237384765625,-0.998504638671875,0.0173797607421875,0.0072479248046875
1760554532725388800,6.247388916015625,-1.0001220703125,0.0179901123046875,0.0065155029296875
1760554532735393800,6.257393798828125,-0.999114990234375,0.01556396484375,0.0090789794921875
1760554532745397800,6.267397705078125,-0.9971466064453125,0.0179595947265625,0.0115966796875
1760554532755401700,6.277401611328125,-0.99810791015625,0.0185699462890625,0.0132904052734375
1760554532765406700,6.28740673828125,-0.998931884765625,0.018829345703125,0.0151824951171875
1760554532775410700,6.29741064453125,-0.9978790283203125,0.0157928466796875,0.0147705078125
1760554532785414700,6.30741455078125,-0.9965057373046875,0.013519287109375,0.0139312744140625
1760554532795419600,6.317419677734375,-0.9986724853515625,0.01605224609375,0.013763427734375
1760554532805423600,6.327423583984375,-0.9981536865234375,0.0132904052734375,0.01495361328125
1760554532815428600,6.3374287109375,-0.9990081787109375,0.0135040283203125,0.0148468017578125
1760554532825432800,6.347432861328125,-0.99908447265625,0.0147857666015625,0.015594482421875
1760554532835436500,6.3574365234375,-0.99847412109375,0.015655517578125,0.0165557861328125
1760554532845441500,6.367441650390625,-0.9983062744140625,0.0162506103515625,0.015472412109375
1760554532855445500,6.377445556640625,-0.9991607666015625,0.0165863037109375,0.010101318359375
1760554532865450500,6.387450439453125,-0.9979095458984375,0.0121002197265625,0.011962890625
1760554532875454700,6.397454833984375,-0.9987640380859375,0.009735107421875,0.01336669921875
1760554532885458700,6.407458740234375,-0.9963226318359375,0.00677490234375,0.012908935546875
1760554532895463700,6.417463623046875,-0.996368408203125,0.0069580078125,0.0117645263671875
1760554532905467600,6.427467529296875,-0.9964447021484375,0.00579833984375,0.0131683349609375
1760554532915472600,6.43747265625,-0.997802734375,0.0074005126953125,0.0141754150390625
1760554532925476900,6.447476806640625,-0.9972686767578125,0.008270263671875,0.0113372802734375
1760554532935480600,6.45748046875,-0.9987335205078125,0.00823974609375,0.0081329345703125
1760554532945485600,6.467485595703125,-0.9979095458984375,0.0088043212890625,0.0087127685546875
1760554532955489500,6.477489501953125,-0.9992523193359375,0.0075531005859375,0.010467529296875
1760554532965494500,6.48749462890625,-0.9968109130859375,0.00421142578125,0.0183868408203125
1760554532975498800,6.497498779296875,-0.9965667724609375,0.001983642578125,0.01849365234375
1760554532985502700,6.507502685546875,-0.99566650390625,0.001983642578125,0.0200653076171875
1760554532995507700,6.5175078125,-0.9971466064453125,0.0059661865234375,0.0196533203125
1760554533005511700,6.52751171875,-0.9979705810546875,0.008880615234375,0.0171966552734375
1760554533015516700,6.5375166015625,-0.999786376953125,0.011260986328125,0.0175018310546875
1760554533025521000,6.54752099609375,-1.0001373291015625,0.014373779296875,0.0164794921875
1760554533035524600,6.557524658203125,-0.99853515625,0.0173492431640625,0.012603759765625
1760554533045529600,6.567529541015625,-1.000885009765625,0.01702880859375,0.012298583984375
1760554533055533600,6.577533447265625,-1.00164794921875,0.014892578125,0.0146636962890625
1760554533065538600,6.58753857421875,-1.000396728515625,0.016510009765625,0.014007568359375
1760554533075542800,6.597542724609375,-0.9990234375,0.0140533447265625,0.0126495361328125
1760554533085546800,6.607546630859375,-0.9983673095703125,0.013916015625,0.0126953125
1760554533095551700,6.6175517578125,-0.99725341796875,0.0136260986328125,0.0142822265625
1760554533105555700,6.6275556640625,-0.9986572265625,0.01007080078125,0.01397705078125
1760554533115560700,6.637560791015625,-0.9978485107421875,0.009735107421875,0.0157928466796875
1760554533125564700,6.647564697265625,-0.9985504150390625,0.0093841552734375,0.02117919921875
1760554533135568600,6.657568603515625,-0.9973297119140625,0.0083465576171875,0.0230712890625
1760554533145573600,6.66757373046875,-0.9965362548828125,0.006103515625,0.0243988037109375
1760554533155577600,6.67757763671875,-0.9972991943359375,0.0076904296875,0.024444580078125
1760554533165582600,6.68758251953125,-0.9991607666015625,0.009002685546875,0.0258636474609375
1760554533175586800,6.6975869140625,-0.9991302490234375,0.012847900390625,0.0259857177734375
1760554533185590800,6.7075908203125,-0.99884033203125,0.014373779296875,0.026031494140625
1760554533195595800,6.717595703125,-0.9995574951171875,0.01324462890625,0.0251007080078125
1760554533205599700,6.727599853515625,-1.0004119873046875,0.0154571533203125,0.025299072265625
1760554533215604700,6.737604736328125,-1.0003509521484375,0.01605224609375,0.0243072509765625
1760554533225608700,6.747608642578125,-1.00042724609375,0.015869140625,0.024749755859375
1760554533235612700,6.75761279296875,-0.999603271484375,0.015625,0.023193359375
1760554533245617700,6.76761767578125,-0.999786376953125,0.01690673828125,0.0223846435546875
1760554533255621600,6.77762158203125,-0.9995269775390625,0.014556884765625,0.02117919921875
1760554533265625600,6.78762548828125,-0.998077392578125,0.011199951171875,0.0193023681640625
1760554533275630600,6.797630615234375,-0.9960174560546875,0.0084686279296875,0.0178375244140625
1760554533285634800,6.807634765625,-0.9953460693359375,0.00543212890625,0.0160675048828125
1760554533295640000,6.81764013671875,-0.9957122802734375,0.0045318603515625,0.0163726806640625
1760554533305644000,6.82764404296875,-0.998626708984375,0.0067138671875,0.021575927734375
1760554533315648000,6.83764794921875,-0.997955322265625,0.006561279296875,0.02154541015625
1760554533325653000,6.847653076171875,-0.998687744140625,0.0073699951171875,0.0224609375
1760554533335657200,6.8576572265625,-0.997222900390625,0.008209228515625,0.025787353515625
1760554533345662200,6.867662109375,-0.9988555908203125,0.0074462890625,0.026824951171875
1760554533355666000,6.877666015625,-0.998138427734375,0.005706787109375,0.0288543701171875
1760554533365670000,6.887669921875,-0.996490478515625,0.009063720703125,0.03057861328125
1760554533375675000,6.8976748046875,-0.9975128173828125,0.0115509033203125,0.03131103515625
1760554533385679000,6.90767919921875,-0.9977264404296875,0.01068115234375,0.028839111328125
1760554533395684000,6.91768408203125,-0.9988861083984375,0.011962890625,0.0267791748046875
1760554533405688000,6.92768798828125,-0.9990081787109375,0.0099334716796875,0.023681640625
1760554533415692000,6.937692138671875,-0.9978485107421875,0.0089263916015625,0.0186920166015625
1760554533425697000,6.947697021484375,-0.9981536865234375,0.009124755859375,0.0182647705078125
1760554533435701200,6.957701171875,-0.9994354248046875,0.0088653564453125,0.01934814453125
1760554533445706200,6.967706298828125,-0.99835205078125,0.0100250244140625,0.0205535888671875
1760554533455710000,6.9777099609375,-0.997100830078125,0.010223388671875,0.02569580078125
1760554533465714000,6.9877138671875,-0.99822998046875,0.00958251953125,0.0279541015625
1760554533475719000,6.997718994140625,-0.9992828369140625,0.0121917724609375,0.0274810791015625
1760554533485723100,7.00772314453125,-0.9985809326171875,0.01165771484375,0.0285797119140625
1760554533495728000,7.01772802734375,-0.9981842041015625,0.009857177734375,0.0263519287109375
1760554533505732000,7.027732177734375,-0.999267578125,0.01019287109375,0.0247802734375
1760554533515736000,7.037736083984375,-0.9983062744140625,0.0119781494140625,0.0274810791015625
1760554533525741000,7.047740966796875,-0.998565673828125,0.0111846923828125,0.027740478515625
1760554533535745000,7.0577451171875,-1.000213623046875,0.0104827880859375,0.0278778076171875
1760554533545750000,7.06775,-0.9987335205078125,0.0084991455078125,0.0289459228515625
1760554533555754000,7.07775390625,-0.99755859375,0.00775146484375,0.0310821533203125
1760554533565758000,7.087758056640625,-0.99664306640625,0.0077972412109375,0.031280517578125
1760554533575763000,7.097762939453125,-0.9978790283203125,0.00335693359375,0.0287017822265625
1760554533585767000,7.107766845703125,-0.9981231689453125,0.0021209716796875,0.0240478515625
1760554533595772000,7.11777197265625,-0.9979095458984375,0.0047760009765625,0.0241546630859375
1760554533605776100,7.127776123046875,-0.9979248046875,0.006011962890625,0.016082763671875
1760554533615780000,7.137780029296875,-0.9983367919921875,0.002655029296875,0.014404296875
1760554533625785000,7.14778515625,-0.99859619140625,0.005584716796875,0.01715087890625
1760554533635788800,7.157788818359375,-0.998748779296875,0.005340576171875,0.01983642578125
1760554533645793800,7.167793701171875,-0.998992919921875,0.0042724609375,0.022369384765625
1760554533655798000,7.177798095703125,-0.9975128173828125,0.00360107421875,0.0216522216796875
1760554533665802000,7.187802001953125,-0.997467041015625,0.00689697265625,0.0209197998046875
1760554533675807000,7.197806884765625,-0.9984588623046875,0.0075836181640625,0.0190277099609375
1760554533685811000,7.20781103515625,-0.9989013671875,0.0076446533203125,0.021270751953125
1760554533695815200,7.217815185546875,-0.9989166259765625,0.00927734375,0.02294921875
1760554533705820200,7.227820068359375,-0.9994659423828125,0.0093841552734375,0.02484130859375
1760554533715824000,7.23782421875,-0.996856689453125,0.0060272216796875,0.024169921875
1760554533725829000,7.2478291015625,-0.997650146484375,0.00543212890625,0.024169921875
1760554533735832800,7.257832763671875,-0.99603271484375,0.0017242431640625,0.02239990234375
1760554533745837000,7.267837158203125,-0.9972991943359375,0.0025634765625,0.0240478515625
1760554533755842000,7.277842041015625,-0.99755859375,0.0065765380859375,0.020660400390625
1760554533765846000,7.287845947265625,-0.9993896484375,0.007415771484375,0.0203704833984375
1760554533775851000,7.29785107421875,-0.997802734375,0.0074615478515625,0.02276611328125
1760554533785855000,7.30785498046875,-0.999542236328125,0.01251220703125,0.0208587646484375
1760554533795859200,7.317859130859375,-1.00042724609375,0.012237548828125,0.018341064453125
1760554533805864200,7.3278642578125,-0.9984588623046875,0.01031494140625,0.019866943359375
1760554533815868200,7.3378681640625,-1.0010223388671875,0.0117034912109375,0.0224761962890625
1760554533825873200,7.347873046875,-1.0018310546875,0.01336669921875,0.023345947265625
1760554533835876900,7.357876953125,-1.00048828125,0.014617919921875,0.02294921875
1760554533845881000,7.367881103515625,-0.998382568359375,0.0138092041015625,0.027252197265625
1760554533855886000,7.377885986328125,-0.99847412109375,0.009521484375,0.0249786376953125
1760554533865890000,7.38789013671875,-0.996856689453125,0.003936767578125,0.0167388916015625
1760554533875895000,7.39789501953125,-0.9949493408203125,-0.002655029296875,0.0206756591796875
1760554533885899000,7.40789892578125,-0.9941253662109375,-0.0082855224609375,0.0222930908203125
1760554533895903200,7.4179033203125,-0.9920654296875,-0.010711669921875,0.0203094482421875
1760554533905908200,7.427908203125,-0.9943389892578125,-0.005584716796875,0.0190887451171875
1760554533915912000,7.437911865234375,-0.996490478515625,0.000457763671875,0.015411376953125
1760554533925917000,7.4479169921875,-0.9964752197265625,0.0046844482421875,0.0142059326171875
1760554533935921000,7.4579208984375,-0.997772216796875,0.0079803466796875,0.013092041015625
1760554533945925000,7.467925048828125,-1.000732421875,0.0136260986328125,0.0198974609375
1760554533955930000,7.47793017578125,-0.9990997314453125,0.0163421630859375,0.0205841064453125
1760554533965934000,7.48793408203125,-1.00299072265625,0.0200653076171875,0.0146331787109375
1760554533975939000,7.49793896484375,-1.0038909912109375,0.023345947265625,0.0160064697265625
1760554533985943000,7.507943115234375,-1.001312255859375,0.024810791015625,0.0141448974609375
1760554533995947000,7.517947021484375,-1.002777099609375,0.024932861328125,0.0135040283203125
1760554534005952000,7.527951904296875,-1.0027618408203125,0.02264404296875,0.0149993896484375
1760554534015956000,7.5379560546875,-1.0005950927734375,0.018341064453125,0.0222320556640625
1760554534025961000,7.5479609375,-0.99896240234375,0.0125885009765625,0.0237579345703125
1760554534035965000,7.55796484375,-0.998565673828125,0.009033203125,0.0233917236328125
1760554534045969000,7.567968994140625,-0.9983062744140625,0.005615234375,0.0238189697265625
1760554534055974000,7.577973876953125,-0.99725341796875,0.005950927734375,0.0171661376953125
1760554534065978000,7.58797802734375,-0.9970550537109375,0.005828857421875,0.0157318115234375
1760554534075983000,7.597983154296875,-0.997833251953125,0.0039520263671875,0.0161285400390625
1760554534085987000,7.607987060546875,-0.9978485107421875,0.00274658203125,0.013702392578125
1760554534095991000,7.617990966796875,-0.997589111328125,0.0030059814453125,0.0126190185546875
1760554534105996000,7.62799609375,-0.9979400634765625,0.004638671875,0.008758544921875
1760554534116000000,7.638,-0.99737548828125,0.0027313232421875,0.0104827880859375
1760554534126004000,7.64800390625,-0.9956512451171875,0.0016937255859375,0.0166778564453125
1760554534136009000,7.658009033203125,-0.99713134765625,0.000030517578125,0.01385498046875
1760554534146013000,7.668012939453125,-0.998138427734375,0.0014495849609375,0.0092010498046875
1760554534156018000,7.678017822265625,-0.998382568359375,0.0022735595703125,0.010467529296875
1760554534166022100,7.688022216796875,-0.996063232421875,0.002166748046875,0.011993408203125
1760554534176026000,7.698026123046875,-0.9964599609375,0.002105712890625,0.0112152099609375
1760554534186031000,7.708031005859375,-0.9970855712890625,0.004180908203125,0.0110931396484375
1760554534196034800,7.718034912109375,-0.9985198974609375,0.0041961669921875,0.010101318359375
1760554534206040000,7.7280400390625,-0.99908447265625,0.0040283203125,0.01361083984375
1760554534216044000,7.7380439453125,-0.9988555908203125,0.0084075927734375,0.018890380859375
1760554534226048000,7.748048095703125,-0.9975433349609375,0.00860595703125,0.0167083740234375
1760554534236053000,7.758052978515625,-0.9980010986328125,0.007965087890625,0.014984130859375
1760554534246057000,7.768056884765625,-0.9979095458984375,0.008819580078125,0.01141357421875
1760554534256062000,7.77806201171875,-0.9980621337890625,0.01153564453125,0.005615234375
1760554534266066200,7.788066162109375,-0.99755859375,0.0112152099609375,0.0032501220703125
1760554534276070100,7.798070068359375,-0.9979095458984375,0.0129241943359375,0.002532958984375
1760554534286075100,7.8080751953125,-0.9991455078125,0.01568603515625,0.00384521484375
1760554534296078600,7.81807861328125,-0.999481201171875,0.0141448974609375,0.0047607421875
1760554534306083600,7.82808349609375,-1.000030517578125,0.0139923095703125,0.0076904296875
1760554534316087800,7.838087890625,-0.9991302490234375,0.01568603515625,0.00775146484375
1760554534326091800,7.848091796875,-1,0.0140838623046875,0.004058837890625
1760554534336096800,7.8580966796875,-0.9971160888671875,0.0137176513671875,0.00494384765625
1760554534346100500,7.8681005859375,-0.999542236328125,0.015777587890625,0.0059051513671875
1760554534356105500,7.87810546875,-1.0019378662109375,0.015289306640625,0.007293701171875
1760554534366109700,7.888109619140625,-1.0005950927734375,0.0185546875,0.0056610107421875
1760554534376113700,7.89811376953125,-1.001678466796875,0.0189666748046875,0.005828857421875
1760554534386118700,7.90811865234375,-0.999237060546875,0.0151519775390625,0.0062255859375
1760554534396122600,7.91812255859375,-0.997711181640625,0.012359619140625,0.0077667236328125
1760554534406127600,7.928127685546875,-0.9978485107421875,0.0137481689453125,0.009521484375
1760554534416131800,7.9381318359375,-0.9977264404296875,0.0126800537109375,0.0125732421875
1760554534426135600,7.948135498046875,-0.9998626708984375,0.0157928466796875,0.0125579833984375
1760554534436140500,7.958140625,-0.9999542236328125,0.0149993896484375,0.012908935546875
1760554534446144500,7.96814453125,-0.9992218017578125,0.013397216796875,0.0115509033203125
1760554534456149500,7.9781494140625,-0.9988861083984375,0.0131072998046875,0.0083770751953125
1760554534466153700,7.98815380859375,-0.9981689453125,0.0129241943359375,0.0073089599609375
1760554534476156700,7.99815673828125,-0.997467041015625,0.010772705078125,0.0068817138671875
1760554534486161700,8.00816162109375,-0.9982452392578125,0.011322021484375,0.006195068359375
1760554534496165600,8.01816552734375,-0.99859619140625,0.0106964111328125,0.009246826171875
1760554534506169600,8.028169677734375,-0.996856689453125,0.009307861328125,0.0079193115234375
1760554534516174600,8.038174560546874,-0.998443603515625,0.0124359130859375,0.0092926025390625
1760554534526178600,8.048178466796875,-0.9983062744140625,0.0130767822265625,0.010589599609375
1760554534536183600,8.05818359375,-0.9987030029296875,0.013885498046875,0.00677490234375
1760554534546187500,8.0681875,-0.9994354248046875,0.0134735107421875,0.0041961669921875
1760554534556191700,8.078191650390625,-1.000762939453125,0.015350341796875,0.004486083984375
1760554534566196700,8.08819677734375,-0.9989166259765625,0.01318359375,0.0031585693359375
1760554534576200700,8.09820068359375,-0.997650146484375,0.013824462890625,0.004791259765625
1760554534586205700,8.108205810546876,-0.995819091796875,0.01129150390625,0.0057373046875
1760554534596209700,8.118209716796875,-0.9996490478515625,0.011962890625,0.0055999755859375
1760554534606213600,8.128213623046875,-0.998199462890625,0.011260986328125,0.006988525390625
1760554534616218600,8.138218505859374,-0.996856689453125,0.0102996826171875,0.0070037841796875
1760554534626222600,8.14822265625,-0.9987945556640625,0.010467529296875,0.0070037841796875
1760554534636227600,8.1582275390625,-0.9978179931640625,0.00860595703125,0.009857177734375
1760554534646231600,8.1682314453125,-0.99713134765625,0.0090179443359375,0.014129638671875
1760554534656235800,8.17823583984375,-0.9974212646484375,0.0082855224609375,0.0122833251953125
1760554534666240800,8.18824072265625,-0.9979400634765625,0.0085906982421875,0.011566162109375
1760554534676244700,8.19824462890625,-0.9955596923828125,0.00958251953125,0.012969970703125
1760554534686248400,8.20824853515625,-0.996612548828125,0.0132904052734375,0.012359619140625
1760554534696253400,8.21825341796875,-0.9996490478515625,0.0163726806640625,0.0073699951171875
1760554534706257700,8.228257568359375,-0.9996490478515625,0.015472412109375,0.005828857421875
1760554534716262700,8.2382626953125,-0.999603271484375,0.0155487060546875,0.0028533935546875
1760554534726266600,8.2482666015625,-0.9987335205078125,0.0160980224609375,-0.0005645751953125
1760554534736271600,8.258271728515625,-0.999542236328125,0.0159759521484375,-0.003173828125
1760554534746275600,8.268275634765626,-0.9998931884765625,0.016693115234375,0.0034942626953125
1760554534756279800,8.27827978515625,-0.9983978271484375,0.0157318115234375,0.005279541015625
1760554534766284800,8.288284912109376,-0.9983978271484375,0.0136871337890625,0.002960205078125
1760554534776288800,8.298288818359374,-0.9984283447265625,0.0166778564453125,0.0039520263671875
1760554534786293800,8.308293701171875,-0.998199462890625,0.016815185546875,0.004974365234375
1760554534796297500,8.31829736328125,-0.9983978271484375,0.017120361328125,0.0019683837890625
1760554534806301700,8.3283017578125,-1.0005645751953125,0.014678955078125,0.004058837890625
1760554534816306700,8.338306640625,-0.9983367919921875,0.0138092041015625,0.0063629150390625
1760554534826312400,8.3483125,-0.998046875,0.0141448974609375,0.006103515625
1760554534836316700,8.358316650390625,-1.000274658203125,0.01531982421875,0.0054168701171875
1760554534846321700,8.36832177734375,-0.99957275390625,0.0145416259765625,0.0054931640625
1760554534856325600,8.37832568359375,-0.9993743896484375,0.0167236328125,0.0029754638671875
1760554534866329600,8.38832958984375,-1.0008697509765625,0.0191497802734375,0.0029449462890625
1760554534876334600,8.39833447265625,-0.9996337890625,0.016510009765625,0.0002593994140625
1760554534886338800,8.4083388671875,-0.9988555908203125,0.0160980224609375,0.0019683837890625
1760554534896343800,8.41834375,-1.0002899169921875,0.01885986328125,0.0016021728515625
1760554534906347800,8.42834765625,-0.998138427734375,0.0173187255859375,0.0030059814453125
1760554534916351500,8.4383515625,-1.00054931640625,0.0154876708984375,0.003173828125
1760554534926356500,8.4483564453125,-0.9995880126953125,0.0178375244140625,-0.0001373291015625
1760554534936360700,8.458360595703125,-1.0017242431640625,0.0222625732421875,-0.003509521484375
1760554534946364700,8.46836474609375,-1.0014495849609375,0.0256805419921875,-0.00726318359375
1760554534956369700,8.47836962890625,-1.000244140625,0.0213623046875,-0.007781982421875
1760554534966373600,8.48837353515625,-0.997772216796875,0.0108642578125,0.0036773681640625
1760554534976378600,8.498378662109374,-0.99066162109375,-0.0101470947265625,0.0074615478515625
1760554534986382800,8.5083828125,-0.986846923828125,-0.0259552001953125,0.012786865234375
1760554534996386800,8.51838671875,-0.987640380859375,-0.025360107421875,0.0143890380859375
1760554535006391800,8.528391845703124,-0.991363525390625,-0.0155487060546875,0.0113372802734375
1760554535016395500,8.5383955078125,-0.9936370849609375,-0.00360107421875,0.0048370361328125
1760554535026400500,8.548400390625,-0.9958343505859375,0.00836181640625,-0.0008087158203125
1760554535036404700,8.55840478515625,-0.9999542236328125,0.02117919921875,-0.0057373046875
1760554535046408700,8.56840869140625,-1.00164794921875,0.026763916015625,-0.002593994140625
1760554535056413700,8.57841357421875,-0.999908447265625,0.026458740234375,-0.0017547607421875
1760554535066417700,8.588417724609375,-1.000335693359375,0.02801513671875,-0.0005645751953125
1760554535076422700,8.598422607421876,-1.005645751953125,0.036895751953125,-0.0005950927734375
1760554535086426600,8.608426513671875,-1.0041961669921875,0.0408172607421875,0.0022125244140625
1760554535096430600,8.6184306640625,-1.005035400390625,0.045135498046875,-0.0003814697265625
1760554535106435600,8.628435546875,-1.0059967041015625,0.043487548828125,-0.006927490234375
1760554535116439600,8.638439453125,-1.0040740966796875,0.043670654296875,-0.0102996826171875
1760554535126444500,8.648444580078126,-1.0050506591796875,0.043365478515625,-0.0087127685546875
1760554535136448500,8.658448486328124,-1.0037689208984375,0.0364990234375,-0.00994873046875
1760554535146452700,8.66845263671875,-1.001007080078125,0.0240325927734375,-0.00762939453125
1760554535156457700,8.678457763671876,-0.99676513671875,0.0115509033203125,0.002532958984375
1760554535166461700,8.688461669921875,-0.99493408203125,0.0020599365234375,0.0063934326171875
1760554535176466700,8.698466796875,-0.993316650390625,-0.0050048828125,0.0040283203125
1760554535186470700,8.708470703125,-0.9915008544921875,-0.009368896484375,0.0001678466796875
1760554535196474600,8.718474609375,-0.9932403564453125,-0.0041351318359375,-0.00439453125
1760554535206479600,8.728479736328126,-0.993316650390625,0.000152587890625,-0.0076904296875
1760554535216483600,8.738483642578124,-0.9945526123046875,0.003997802734375,-0.01068115234375
1760554535226488600,8.748488525390625,-0.995574951171875,0.0095367431640625,-0.01025390625
1760554535236492500,8.758492431640626,-0.9959259033203125,0.01116943359375,-0.006378173828125
1760554535246496800,8.768496826171875,-0.9967193603515625,0.0115203857421875,-0.006927490234375
1760554535256501800,8.778501708984376,-0.9974212646484375,0.0155792236328125,-0.001068115234375
1760554535266505700,8.788505615234374,-0.9991912841796875,0.0188446044921875,0.0001373291015625
1760554535276510700,8.7985107421875,-1.0010223388671875,0.0244903564453125,0.0021514892578125
1760554535286514700,8.8085146484375,-1.00146484375,0.027557373046875,-0.0020294189453125
1760554535296519000,8.818518798828125,-1.0010223388671875,0.0292816162109375,-0.003875732421875
1760554535306524000,8.82852392578125,-1.0013427734375,0.029571533203125,-0.0058746337890625
1760554535316527900,8.83852783203125,-1.0022125244140625,0.0286712646484375,-0.0072784423828125
1760554535326532900,8.848532958984375,-1.0010223388671875,0.026336669921875,-0.0052032470703125
1760554535336536800,8.858536865234376,-0.998382568359375,0.0212860107421875,-0.007232666015625
1760554535346540800,8.868540771484374,-1.0008392333984375,0.018768310546875,-0.0070037841796875
1760554535356545800,8.8785458984375,-0.99951171875,0.01934814453125,-0.0056304931640625
1760554535366549800,8.8885498046875,-0.99945068359375,0.0185089111328125,-0.003448486328125
1760554535376554800,8.8985546875,-1.000091552734375,0.019500732421875,-0.0042572021484375
1760554535386558700,8.908558837890626,-1.00048828125,0.021148681640625,-0.0052947998046875
1760554535396562700,8.918562744140624,-1.0005950927734375,0.0236968994140625,-0.0044403076171875
1760554535406568000,8.92856787109375,-1.0013885498046875,0.023651123046875,-0.0048065185546875
1760554535416572000,8.938572021484376,-0.99969482421875,0.021240234375,-0.0028076171875
1760554535426577000,8.948576904296875,-1.000396728515625,0.01751708984375,-0.000579833984375
1760554535436580600,8.95858056640625,-0.997222900390625,0.0102386474609375,0.0012054443359375
1760554535446584600,8.96858447265625,-0.9976654052734375,0.0092926025390625,-0.000457763671875
1760554535456589800,8.97858984375,-0.9960784912109375,0.0066375732421875,0.0029754638671875
1760554535466593800,8.98859375,-0.9952392578125,0.0040740966796875,-0.0029296875
1760554535476598800,8.998598876953125,-0.9964141845703125,0.00469970703125,-0.007080078125
1760554535486602800,9.008602783203125,-0.9956817626953125,0.006439208984375,-0.008514404296875
1760554535496606700,9.018606689453126,-0.99676513671875,0.008636474609375,-0.0068817138671875
1760554535506611700,9.02861181640625,-0.99725341796875,0.01025390625,-0.0089569091796875
1760554535516616000,9.038615966796876,-0.9971466064453125,0.0143890380859375,-0.0102691650390625
1760554535526621000,9.048620849609375,-0.9987030029296875,0.0180511474609375,-0.009979248046875
1760554535536624600,9.058624755859375,-0.9991455078125,0.0200958251953125,-0.0115203857421875
1760554535546628600,9.068628662109376,-1.00006103515625,0.021270751953125,-0.0115509033203125
1760554535556633600,9.078633544921875,-1.0006866455078125,0.02655029296875,-0.0104522705078125
1760554535566637800,9.088637939453125,-1.0008544921875,0.02642822265625,-0.0134735107421875
1760554535576642800,9.098642822265624,-1.0001983642578125,0.022796630859375,-0.0121307373046875
1760554535586646800,9.108646728515625,-1.0007476806640625,0.02252197265625,-0.0101776123046875
1760554535596650800,9.118650634765626,-1,0.022552490234375,-0.0099945068359375
1760554535606655700,9.12865576171875,-0.998016357421875,0.0198822021484375,-0.0070037841796875
1760554535616660000,9.138659912109375,-0.9973907470703125,0.017364501953125,-0.008575439453125
1760554535626665000,9.1486650390625,-0.996307373046875,0.0135345458984375,-0.0113677978515625
1760554535636668700,9.158668701171875,-0.999176025390625,0.013824462890625,-0.0111236572265625
1760554535646672600,9.168672607421875,-0.9991302490234375,0.01495361328125,-0.0075836181640625
1760554535656677600,9.178677734375,-0.998321533203125,0.0140533447265625,-0.009002685546875
1760554535666681900,9.188681884765625,-0.9980621337890625,0.01470947265625,-0.0070953369140625
1760554535676686800,9.198686767578126,-0.99945068359375,0.015289306640625,-0.0048980712890625
1760554535686690800,9.20869091796875,-0.998626708984375,0.015777587890625,-0.0051116943359375
1760554535696694800,9.21869482421875,-0.9981842041015625,0.01409912109375,-0.006622314453125
1760554535706699800,9.22869970703125,-0.9974365234375,0.0143280029296875,-0.0059661865234375
1760554535716704000,9.2387041015625,-0.9981689453125,0.0146331787109375,-0.0070037841796875
1760554535726709000,9.248708984375,-0.9988555908203125,0.0164947509765625,-0.0091705322265625
1760554535736712700,9.258712646484375,-0.996978759765625,0.0140228271484375,-0.0124664306640625
1760554535746716700,9.268716552734375,-0.9987335205078125,0.0120849609375,-0.0085296630859375
1760554535756721700,9.2787216796875,-0.998138427734375,0.0131072998046875,-0.0073089599609375
1760554535766726000,9.288725830078125,-0.997589111328125,0.0121917724609375,-0.008209228515625
1760554535776731000,9.29873095703125,-0.9983367919921875,0.010772705078125,-0.005462646484375
1760554535786734800,9.30873486328125,-0.999053955078125,0.0130462646484375,-0.007720947265625
1760554535796738800,9.31873876953125,-0.9997711181640625,0.01123046875,-0.006561279296875
1760554535806743800,9.328743896484376,-0.99688720703125,0.010223388671875,-0.0117034912109375
1760554535816747800,9.338747802734375,-0.9976654052734375,0.012420654296875,-0.01312255859375
1760554535826751700,9.348751708984375,-0.998046875,0.0108184814453125,-0.013092041015625
1760554535836756700,9.3587568359375,-0.9975128173828125,0.01312255859375,-0.0153350830078125
1760554535846760700,9.3687607421875,-0.9978179931640625,0.0156097412109375,-0.0110321044921875
1760554535856765700,9.378765625,-0.999664306640625,0.0172882080078125,-0.00958251953125
1760554535866769700,9.388769775390625,-0.999908447265625,0.016357421875,-0.00604248046875
1760554535876775000,9.39877490234375,-1.00006103515625,0.020538330078125,-0.0054473876953125
1760554535886779000,9.40877880859375,-1.001495361328125,0.02197265625,-0.0026397705078125
1760554535896782800,9.418782958984375,-1.000885009765625,0.0207977294921875,-0.00689697265625
1760554535906787800,9.428787841796876,-1.00128173828125,0.0196990966796875,-0.0052337646484375
1760554535916791600,9.43879150390625,-0.999237060546875,0.0182037353515625,-0.008026123046875
1760554535926796800,9.448796875,-0.998748779296875,0.0153961181640625,-0.011077880859375
1760554535936800800,9.45880078125,-0.99969482421875,0.0157012939453125,-0.0117950439453125
1760554535946804700,9.4688046875,-0.997650146484375,0.0136566162109375,-0.011810302734375
1760554535956809700,9.478809814453125,-0.996917724609375,0.0116424560546875,-0.0073699951171875
1760554535966813700,9.488813720703124,-0.9976806640625,0.0092620849609375,-0.011016845703125
1760554535976818000,9.49881787109375,-0.9967041015625,0.00909423828125,-0.0075225830078125
1760554535986823000,9.508822998046876,-0.996337890625,0.0075836181640625,-0.0053863525390625
1760554535996827000,9.518826904296875,-0.9974517822265625,0.00677490234375,-0.00518798828125
1760554536006831900,9.528831787109375,-0.9967498779296875,0.0067901611328125,-0.004974365234375
1760554536016835600,9.538835693359376,-0.9977569580078125,0.007476806640625,-0.0058135986328125
1760554536026839800,9.54883984375,-0.99761962890625,0.0099945068359375,-0.0052032470703125
1760554536036844800,9.5588447265625,-0.99786376953125,0.0116119384765625,-0.0046539306640625
1760554536046848800,9.568848876953124,-0.997894287109375,0.0140380859375,-0.0031280517578125
1760554536056853800,9.578853759765625,-0.998687744140625,0.011688232421875,-0.002685546875
1760554536066857700,9.588857666015626,-0.998138427734375,0.0112457275390625,-0.0032501220703125
1760554536076862000,9.598862060546875,-0.998382568359375,0.00982666015625,-0.00439453125
1760554536086867000,9.608866943359375,-0.99871826171875,0.009124755859375,-0.0056915283203125
1760554536096870700,9.61887060546875,-0.998992919921875,0.0082855224609375,-0.0086669921875
1760554536106875600,9.628875732421875,-0.997222900390625,0.0079803466796875,-0.004241943359375
1760554536116879600,9.638879638671876,-0.996978759765625,0.01068115234375,-0.0059051513671875
1760554536126883800,9.6488837890625,-0.9970855712890625,0.013946533203125,-0.0059967041015625
1760554536136888800,9.658888916015625,-0.9970855712890625,0.01226806640625,-0.0069427490234375
1760554536146892800,9.668892822265626,-0.998809814453125,0.0151824951171875,-0.007843017578125
1760554536156897800,9.678897705078125,-1.0003662109375,0.0173492431640625,-0.0078277587890625
1760554536166901800,9.68890185546875,-1.000396728515625,0.0152130126953125,-0.0098724365234375
1760554536176906000,9.698906005859374,-0.998992919921875,0.01385498046875,-0.0075225830078125
1760554536186911000,9.708910888671875,-0.9991912841796875,0.0149993896484375,-0.0039825439453125
1760554536196914700,9.718914794921876,-1.000152587890625,0.0153045654296875,-0.0013580322265625
1760554536206919700,9.728919677734375,-0.99896240234375,0.0150604248046875,-0.0000762939453125
1760554536216923600,9.738923583984375,-0.9987945556640625,0.0135650634765625,-0.0001678466796875
1760554536226927900,9.748927978515624,-0.9982147216796875,0.01177978515625,-0.0029296875
1760554536236932900,9.758932861328125,-0.99822998046875,0.011383056640625,-0.0055389404296875
1760554536246936800,9.768936767578126,-0.9982452392578125,0.010528564453125,-0.0058441162109375
1760554536256941800,9.77894189453125,-0.996795654296875,0.010833740234375,-0.003326416015625
1760554536266945800,9.78894580078125,-0.9980010986328125,0.0099334716796875,-0.00286865234375
1760554536276949800,9.79894970703125,-0.9970245361328125,0.0095977783203125,-0.003509521484375
1760554536286954800,9.808954833984375,-0.997528076171875,0.010650634765625,-0.004791259765625
1760554536296958500,9.81895849609375,-0.9979400634765625,0.0098876953125,-0.005767822265625
1760554536306963500,9.82896337890625,-0.9991607666015625,0.012603759765625,-0.0064697265625
1760554536316967400,9.838967529296875,-0.9998626708984375,0.0127105712890625,-0.0064544677734375
1760554536326971600,9.8489716796875,-0.99822998046875,0.0140228271484375,-0.0073699951171875
1760554536336976600,9.8589765625,-1.0002593994140625,0.0150909423828125,-0.00701904296875
1760554536346980600,9.868980712890625,-0.9993743896484375,0.014312744140625,-0.0084686279296875
1760554536356985600,9.878985595703124,-0.9999237060546875,0.016204833984375,-0.0095672607421875
1760554536366989600,9.888989501953125,-0.9986724853515625,0.0164947509765625,-0.00701904296875
1760554536376993500,9.89899365234375,-1,0.0160064697265625,-0.0094451904296875
1760554536386998500,9.90899853515625,-0.9995269775390625,0.0177154541015625,-0.0108642578125
1760554536397002500,9.91900244140625,-0.999481201171875,0.0155487060546875,-0.0150299072265625
1760554536407007500,9.929007568359374,-0.9991607666015625,0.015411376953125,-0.0144805908203125
1760554536417011500,9.939011474609375,-0.999053955078125,0.013946533203125,-0.01495361328125
1760554536427015400,9.949015380859375,-0.998260498046875,0.011871337890625,-0.0115814208984375
1760554536437020400,9.9590205078125,-0.9996795654296875,0.01202392578125,-0.0100250244140625
1760554536447024600,9.969024658203125,-0.9990386962890625,0.01220703125,-0.007965087890625
1760554536457029600,9.979029541015626,-0.9971923828125,0.0112762451171875,-0.0059051513671875
1760554536467033600,9.98903369140625,-0.99835205078125,0.011810302734375,-0.0034332275390625
1760554536477037300,9.999037353515625,-0.998382568359375,0.010009765625,-0.003875732421875
1760554536487042300,10.009042236328124,-0.997589111328125,0.0086517333984375,-0.0051727294921875
1760554536497046500,10.019046630859375,-0.9995269775390625,0.0081024169921875,-0.006500244140625
1760554536507050500,10.029050537109375,-0.998382568359375,0.008941650390625,-0.0094451904296875
1760554536517055500,10.039055419921874,-0.998199462890625,0.0087127685546875,-0.0086517333984375
1760554536527059500,10.0490595703125,-0.997772216796875,0.0106048583984375,-0.010711669921875
1760554536537064400,10.059064453125,-0.9987030029296875,0.0117645263671875,-0.009735107421875
1760554536547068700,10.069068603515625,-0.9989471435546875,0.01202392578125,-0.008209228515625
1760554536557072600,10.07907275390625,-0.9983978271484375,0.01171875,-0.0089263916015625
1760554536567077600,10.08907763671875,-0.9985198974609375,0.0146026611328125,-0.00970458984375
1760554536577081300,10.099081298828125,-1.000274658203125,0.01519775390625,-0.0099029541015625
1760554536587086300,10.10908642578125,-0.9988555908203125,0.015106201171875,-0.01165771484375
1760554536597090600,10.119090576171875,-0.9992218017578125,0.0140533447265625,-0.0148773193359375
1760554536607094500,10.129094482421875,-0.99896240234375,0.012298583984375,-0.01654052734375
1760554536617099500,10.139099609375,-0.9976043701171875,0.0114898681640625,-0.01202392578125
1760554536627103500,10.149103515625,-0.99798583984375,0.00994873046875,-0.0108642578125
1760554536637108500,10.1591083984375,-0.997833251953125,0.0096893310546875,-0.01043701171875
1760554536647112700,10.16911279296875,-0.9970855712890625,0.0105133056640625,-0.0091552734375
1760554536657116400,10.179116455078125,-0.9992218017578125,0.0112762451171875,-0.0087127685546875
1760554536667121400,10.189121337890626,-1.0002899169921875,0.0121307373046875,-0.0089111328125
1760554536677125400,10.19912548828125,-0.999176025390625,0.0132598876953125,-0.006378173828125
1760554536687130400,10.20913037109375,-0.998809814453125,0.0157318115234375,-0.00689697265625
1760554536697134600,10.219134521484374,-0.997833251953125,0.0168914794921875,-0.007415771484375
1760554536707138600,10.229138671875,-0.9992523193359375,0.0166015625,-0.0063018798828125
1760554536717143600,10.2391435546875,-1.000640869140625,0.0159912109375,-0.00799560546875
1760554536727147500,10.2491474609375,-0.999664306640625,0.013580322265625,-0.0086669921875
1760554536737152500,10.259152587890625,-0.9978179931640625,0.0099334716796875,-0.0086517333984375
1760554536747156700,10.26915673828125,-0.9989013671875,0.0116729736328125,-0.0093841552734375
1760554536757160400,10.279160400390625,-0.99676513671875,0.01202392578125,-0.01043701171875
1760554536767165400,10.28916552734375,-0.996673583984375,0.0116424560546875,-0.01202392578125
1760554536777169400,10.29916943359375,-0.996429443359375,0.010894775390625,-0.015960693359375
1760554536787174400,10.30917431640625,-0.9979705810546875,0.0125579833984375,-0.0186004638671875
1760554536797178600,10.3191787109375,-0.9987030029296875,0.0135650634765625,-0.0163421630859375
1760554536807182600,10.3291826171875,-0.99847412109375,0.0124969482421875,-0.0228729248046875
1760554536817187600,10.3391875,-0.9975433349609375,0.0168914794921875,-0.01959228515625
1760554536827191600,10.349191650390624,-1.0001220703125,0.0183258056640625,-0.0174560546875
1760554536837195500,10.359195556640625,-1.0018157958984375,0.0180511474609375,-0.0149688720703125
1760554536847200500,10.369200439453126,-1.0005950927734375,0.01904296875,-0.012664794921875
1760554536857204500,10.37920458984375,-1.00103759765625,0.0174560546875,-0.011260986328125
1760554536867209500,10.38920947265625,-0.9990997314453125,0.0163116455078125,-0.00836181640625
1760554536877213400,10.39921337890625,-0.999603271484375,0.01300048828125,-0.01055908203125
1760554536887217400,10.409217529296875,-0.9974517822265625,0.0120849609375,-0.0104217529296875
1760554536897222400,10.419222412109375,-0.9992828369140625,0.0123443603515625,-0.0106353759765625
1760554536907226600,10.4292265625,-0.9966278076171875,0.0080718994140625,-0.013641357421875
1760554536917231600,10.439231689453125,-0.99737548828125,0.0074310302734375,-0.01190185546875
1760554536927235600,10.449235595703126,-0.9984893798828125,0.0079498291015625,-0.0114593505859375
1760554536937239300,10.4592392578125,-0.9971466064453125,0.0042266845703125,-0.013580322265625
1760554536947244500,10.46924462890625,-0.996856689453125,0.006317138671875,-0.0136566162109375
1760554536957248500,10.47924853515625,-0.99676513671875,0.0086517333984375,-0.0155487060546875
1760554536967253500,10.48925341796875,-0.9949493408203125,0.0089111328125,-0.0184478759765625
1760554536977257500,10.499257568359376,-0.9987335205078125,0.0114898681640625,-0.02142333984375
1760554536987261400,10.509261474609374,-0.9977569580078125,0.01434326171875,-0.020263671875
1760554536997266400,10.519266357421875,-0.9993896484375,0.015167236328125,-0.01885986328125
1760554537007270700,10.529270751953124,-0.9997711181640625,0.01641845703125,-0.017852783203125
1760554537017275600,10.539275634765625,-0.9984588623046875,0.016754150390625,-0.0184478759765625
1760554537027279600,10.549279541015625,-0.9998321533203125,0.0177001953125,-0.01849365234375
1760554537037283300,10.559283447265624,-1.0010528564453125,0.0165252685546875,-0.0184478759765625
1760554537047288300,10.569288330078125,-0.9986724853515625,0.0151519775390625,-0.019866943359375
1760554537057292500,10.57929248046875,-0.9975433349609375,0.0137176513671875,-0.0177459716796875
1760554537067296500,10.589296630859375,-0.9984130859375,0.0113983154296875,-0.01495361328125
1760554537077301500,10.599301513671875,-0.9976654052734375,0.01141357421875,-0.0118255615234375
1760554537087305500,10.609305419921874,-0.9971160888671875,0.0073394775390625,-0.0102691650390625
1760554537097310500,10.619310546875,-0.9947357177734375,0.0066680908203125,-0.0098114013671875
1760554537107314700,10.629314697265626,-0.9955902099609375,0.00714111328125,-0.0111083984375
1760554537117318700,10.639318603515624,-0.9986724853515625,0.0085906982421875,-0.012969970703125
1760554537127323600,10.64932373046875,-0.9970855712890625,0.0075225830078125,-0.0159149169921875
1760554537137327400,10.659327392578126,-0.9980316162109375,0.0078887939453125,-0.015350341796875
1760554537147332400,10.669332275390625,-0.9990692138671875,0.0122528076171875,-0.016082763671875
1760554537157336600,10.679336669921875,-0.99798583984375,0.008941650390625,-0.016510009765625
1760554537167340500,10.689340576171874,-0.99761962890625,0.0071563720703125,-0.0117645263671875
1760554537177345500,10.699345458984375,-0.998992919921875,0.0108489990234375,-0.0227813720703125
1760554537187349500,10.709349609375,-0.9981231689453125,0.016510009765625,-0.0235595703125
1760554537197354500,10.7193544921875,-0.9972686767578125,0.0193939208984375,-0.0233917236328125
1760554537207358700,10.729358642578125,-0.99884033203125,0.0188751220703125,-0.022491455078125
1760554537217362700,10.73936279296875,-1.000030517578125,0.01898193359375,-0.023468017578125
1760554537227367700,10.74936767578125,-0.9993896484375,0.018157958984375,-0.0197906494140625
1760554537237371400,10.759371337890625,-0.9987945556640625,0.0170440673828125,-0.017822265625
1760554537247375600,10.769375732421874,-0.9986572265625,0.0166473388671875,-0.017730712890625
1760554537257380600,10.779380615234375,-0.997711181640625,0.0155181884765625,-0.019012451171875
1760554537267384600,10.789384521484376,-0.999176025390625,0.01788330078125,-0.0178070068359375
1760554537277389600,10.7993896484375,-0.99871826171875,0.016143798828125,-0.016204833984375
1760554537287393500,10.8093935546875,-0.997406005859375,0.01470947265625,-0.018218994140625
1760554537297397500,10.8193974609375,-0.997039794921875,0.0145416259765625,-0.0189971923828125
1760554537307402500,10.829402587890625,-0.997772216796875,0.0129852294921875,-0.01873779296875
1760554537317406700,10.83940673828125,-0.996246337890625,0.0104827880859375,-0.016571044921875
1760554537327411700,10.84941162109375,-0.9975128173828125,0.01068115234375,-0.0150299072265625
1760554537337415700,10.859415771484375,-0.997772216796875,0.0120391845703125,-0.015167236328125
1760554537347419600,10.869419677734374,-0.9990692138671875,0.0114288330078125,-0.0145263671875
1760554537357424600,10.879424560546875,-0.9993438720703125,0.0139007568359375,-0.0113983154296875
1760554537367428900,10.889428955078126,-0.9979248046875,0.015411376953125,-0.00921630859375
1760554537377433900,10.899433837890625,-0.998321533203125,0.016265869140625,-0.0154876708984375
1760554537387437600,10.9094375,-0.9980621337890625,0.01470947265625,-0.010345458984375
1760554537397441500,10.919441650390626,-0.99896240234375,0.016326904296875,-0.0166168212890625
1760554537407446500,10.929446533203125,-0.9993133544921875,0.0173187255859375,-0.0161590576171875
1760554537417450800,10.93945068359375,-1.0009918212890625,0.0188446044921875,-0.019073486328125
1760554537427454700,10.949454833984374,-0.9990234375,0.0195770263671875,-0.0222930908203125
1760554537437459700,10.959459716796875,-0.9976348876953125,0.018646240234375,-0.0211334228515625
1760554537447463700,10.969463623046876,-1.0010833740234375,0.017242431640625,-0.019012451171875
1760554537457468700,10.97946875,-1.0001068115234375,0.0147857666015625,-0.015716552734375
1760554537467473000,10.989472900390625,-0.9980010986328125,0.015625,-0.0146942138671875
1760554537477476600,10.9994765625,-0.999298095703125,0.0143585205078125,-0.0122222900390625
1760554537487481600,11.009481689453125,-0.997161865234375,0.0118408203125,-0.0154266357421875
1760554537497485600,11.019485595703125,-0.9978485107421875,0.0119171142578125,-0.017730712890625
1760554537507490600,11.029490478515624,-0.9969482421875,0.0151519775390625,-0.0181884765625
1760554537517494800,11.039494873046875,-0.99871826171875,0.0133056640625,-0.0185546875
1760554537527498800,11.049498779296876,-0.999755859375,0.013702392578125,-0.0157623291015625
1760554537537503700,11.059503662109375,-0.999298095703125,0.01593017578125,-0.0160980224609375
1760554537547507700,11.0695078125,-1.000457763671875,0.0195770263671875,-0.0126953125
1760554537557512700,11.0795126953125,-0.9978485107421875,0.0164031982421875,-0.014007568359375
1760554537567517000,11.089516845703125,-0.9997406005859375,0.0171966552734375,-0.014739990234375
1760554537577520600,11.099520751953126,-1.00006103515625,0.0179443359375,-0.0157470703125
1760554537587525600,11.109525634765625,-0.9995269775390625,0.017425537109375,-0.01568603515625
1760554537597529600,11.119529541015625,-0.9988861083984375,0.014984130859375,-0.0174713134765625
1760554537607533600,11.129533447265626,-0.998321533203125,0.01702880859375,-0.0150604248046875
1760554537617538800,11.139538818359375,-0.998321533203125,0.01776123046875,-0.01409912109375
1760554537627542800,11.149542724609375,-0.996826171875,0.0117034912109375,-0.0143280029296875
1760554537637547800,11.1595478515625,-0.997467041015625,0.0130157470703125,-0.01336669921875
1760554537647551700,11.1695517578125,-0.9984283447265625,0.0123748779296875,-0.013031005859375
1760554537657555500,11.179555419921876,-0.995391845703125,0.009979248046875,-0.012298583984375
1760554537667560700,11.189560791015625,-0.9990692138671875,0.010009765625,-0.013092041015625
1760554537677564700,11.199564697265625,-0.995635986328125,0.0117645263671875,-0.0147552490234375
1760554537687569700,11.209569580078124,-0.998046875,0.013702392578125,-0.01617431640625
1760554537697573600,11.21957373046875,-0.9988555908203125,0.0134429931640625,-0.017486572265625
1760554537707577600,11.22957763671875,-0.998046875,0.0169219970703125,-0.0179901123046875
1760554537717582600,11.23958251953125,-0.9990081787109375,0.018890380859375,-0.016265869140625
1760554537727586800,11.2495869140625,-0.998809814453125,0.01751708984375,-0.017242431640625
1760554537737590800,11.2595908203125,-0.998565673828125,0.0168914794921875,-0.016998291015625
1760554537747595800,11.269595703125,-0.9994964599609375,0.0191192626953125,-0.0167236328125
1760554537757599500,11.279599609375,-0.9989166259765625,0.0175628662109375,-0.0133819580078125
1760554537767604500,11.2896044921875,-0.998077392578125,0.0160675048828125,-0.0124664306640625
1760554537777608700,11.299608642578125,-0.9984893798828125,0.014404296875,-0.0115814208984375
1760554537787612700,11.30961279296875,-0.998138427734375,0.0139312744140625,-0.0104217529296875
1760554537797617700,11.31961767578125,-0.998565673828125,0.0121917724609375,-0.008514404296875
1760554537807621600,11.32962158203125,-0.9981231689453125,0.0121612548828125,-0.010467529296875
1760554537817625900,11.3396259765625,-0.9976654052734375,0.0126495361328125,-0.0129852294921875
1760554537827630800,11.349630859375,-0.9982757568359375,0.009674072265625,-0.011627197265625
1760554537837634800,11.359634765625,-0.996978759765625,0.0091705322265625,-0.013519287109375
1760554537847639800,11.369639892578125,-0.9978790283203125,0.011322021484375,-0.0127105712890625
1760554537857643500,11.3796435546875,-0.9983978271484375,0.0114593505859375,-0.0139923095703125
1760554537867647700,11.389647705078126,-0.9969635009765625,0.0154876708984375,-0.0156707763671875
1760554537877652700,11.39965283203125,-0.9988555908203125,0.0177154541015625,-0.01434326171875
1760554537887656700,11.40965673828125,-0.9994964599609375,0.0170745849609375,-0.0148468017578125
1760554537897661700,11.41966162109375,-0.9970550537109375,0.0170440673828125,-0.0164031982421875
1760554537907665700,11.429665771484375,-0.9988861083984375,0.0182952880859375,-0.014801025390625
1760554537917670000,11.439669921875,-0.9996795654296875,0.0188140869140625,-0.01507568359375
1760554537927675000,11.4496748046875,-0.9989013671875,0.0165252685546875,-0.0162811279296875
1760554537937678600,11.4596787109375,-0.998931884765625,0.017120361328125,-0.013946533203125
1760554537947683800,11.469683837890624,-0.9990997314453125,0.018798828125,-0.015960693359375
1760554537957687600,11.4796875,-0.9996337890625,0.0176544189453125,-0.0150604248046875
1760554537967691800,11.48969189453125,-1.0006256103515625,0.0169219970703125,-0.0150604248046875
1760554537977696800,11.49969677734375,-0.9980010986328125,0.016326904296875,-0.0142974853515625
1760554537987700700,11.50970068359375,-0.999237060546875,0.014404296875,-0.012664794921875
1760554537997704700,11.51970458984375,-0.9979095458984375,0.0131683349609375,-0.0122833251953125
1760554538007709700,11.529709716796875,-0.996734619140625,0.0132293701171875,-0.012481689453125
1760554538017713700,11.539713623046875,-1.000030517578125,0.0119781494140625,-0.01226806640625
1760554538027718700,11.54971875,-0.9969482421875,0.0140533447265625,-0.009735107421875
1760554538037722600,11.55972265625,-0.998138427734375,0.015655517578125,-0.0121002197265625
1760554538047726600,11.5697265625,-0.998565673828125,0.0143585205078125,-0.0136871337890625
1760554538057731600,11.579731689453125,-0.9967498779296875,0.013397216796875,-0.01519775390625
1760554538067735600,11.589735595703125,-0.99810791015625,0.0138397216796875,-0.012451171875
1760554538077739800,11.59973974609375,-0.9993438720703125,0.0167388916015625,-0.0224761962890625
1760554538087744800,11.609744873046875,-0.9963836669921875,0.017913818359375,-0.018402099609375
1760554538097748700,11.619748779296875,-0.99969482421875,0.02197265625,-0.0140533447265625
1760554538107753700,11.629753662109374,-1.0001068115234375,0.021759033203125,-0.0146636962890625
1760554538117757700,11.6397578125,-0.9991302490234375,0.0188751220703125,-0.015350341796875
1760554538127761700,11.64976171875,-0.9992218017578125,0.0169677734375,-0.01470947265625
1760554538137766700,11.6597666015625,-0.9970550537109375,0.015838623046875,-0.014404296875
1760554538147770600,11.6697705078125,-0.9969635009765625,0.012115478515625,-0.0137939453125
1760554538157775600,11.679775634765624,-0.9967193603515625,0.00909423828125,-0.0126953125
1760554538167779600,11.689779541015625,-0.997161865234375,0.01031494140625,-0.01141357421875
1760554538177783800,11.69978369140625,-0.9970703125,0.0122222900390625,-0.0110931396484375
1760554538187788800,11.709788818359375,-0.99822998046875,0.0140228271484375,-0.0084991455078125
1760554538197792800,11.719792724609375,-0.9986724853515625,0.015106201171875,-0.00543212890625
1760554538207796500,11.72979638671875,-0.9977264404296875,0.0171966552734375,-0.0071258544921875
1760554538217801700,11.7398017578125,-0.9988250732421875,0.0191497802734375,-0.010101318359375
1760554538227805700,11.7498056640625,-0.9987335205078125,0.021514892578125,-0.010986328125
1760554538237810700,11.759810791015624,-0.9991455078125,0.0227203369140625,-0.01336669921875
1760554538247814700,11.769814697265625,-0.99932861328125,0.02337646484375,-0.01593017578125
1760554538257818600,11.779818603515626,-0.9990692138671875,0.022064208984375,-0.0136260986328125
1760554538267823600,11.78982373046875,-0.999542236328125,0.0222930908203125,-0.0131683349609375
1760554538277827800,11.799827880859375,-1.000030517578125,0.0223236083984375,-0.01617431640625
1760554538287832800,11.809832763671874,-0.998077392578125,0.0212860107421875,-0.0153656005859375
1760554538297837300,11.81983740234375,-0.9987030029296875,0.0226593017578125,-0.01495361328125
1760554538307841300,11.82984130859375,-0.999298095703125,0.0202484130859375,-0.016998291015625
1760554538317846300,11.83984619140625,-0.9996795654296875,0.0193939208984375,-0.0180206298828125
1760554538327850200,11.849850341796875,-0.998748779296875,0.0210418701171875,-0.01580810546875
1760554538337854500,11.8598544921875,-1.0001373291015625,0.0200653076171875,-0.0140838623046875
1760554538347859500,11.869859375,-0.9987945556640625,0.0213470458984375,-0.0127410888671875
1760554538357863200,11.87986328125,-0.9998931884765625,0.0217742919921875,-0.0108489990234375
1760554538367868200,11.8898681640625,-0.9999237060546875,0.0220184326171875,-0.0084228515625
1760554538377872100,11.8998720703125,-1.00128173828125,0.0237274169921875,-0.012054443359375
1760554538387876400,11.90987646484375,-0.997833251953125,0.023712158203125,-0.012603759765625
1760554538397881300,11.91988134765625,-0.9979400634765625,0.020751953125,-0.0111236572265625
1760554538407885300,11.92988525390625,-0.9990234375,0.020233154296875,-0.0133819580078125
1760554538417890300,11.939890380859374,-0.9981231689453125,0.019744873046875,-0.012603759765625
1760554538427894300,11.949894287109375,-0.99774169921875,0.0173187255859375,-0.0107269287109375
1760554538437898200,11.959898193359376,-0.9978179931640625,0.0153350830078125,-0.0105438232421875
1760554538447903500,11.969903564453125,-0.9964599609375,0.0159759521484375,-0.0106048583984375
1760554538457907200,11.9799072265625,-0.9982147216796875,0.0171661376953125,-0.014251708984375
1760554538467910400,11.989910400390626,-0.9973602294921875,0.018280029296875,-0.0136566162109375
1760554538477914400,11.999914306640624,-0.998199462890625,0.01837158203125,-0.0121002197265625
1760554538487919400,12.00991943359375,-0.998565673828125,0.01983642578125,-0.012786865234375
1760554538497923300,12.01992333984375,-0.999053955078125,0.0226593017578125,-0.013397216796875
1760554538507927300,12.02992724609375,-1.000579833984375,0.021392822265625,-0.0140228271484375
1760554538517932300,12.039932373046875,-0.999908447265625,0.0218353271484375,-0.011688232421875
1760554538527936300,12.049936279296874,-0.998779296875,0.0218353271484375,-0.0115814208984375
1760554538537940200,12.059940185546875,-1.000152587890625,0.021881103515625,-0.0141143798828125
1760554538547945200,12.0699453125,-0.9966888427734375,0.0231781005859375,-0.016021728515625
1760554538557949200,12.07994921875,-0.998687744140625,0.0205230712890625,-0.0172119140625
1760554538567954200,12.0899541015625,-0.9993438720703125,0.0208892822265625,-0.01873779296875
1760554538577958400,12.09995849609375,-0.9984283447265625,0.0202789306640625,-0.0177001953125
1760554538587962400,12.10996240234375,-0.9979705810546875,0.018768310546875,-0.0171661376953125
1760554538597967400,12.11996728515625,-0.9975738525390625,0.0167388916015625,-0.0149383544921875
1760554538607971000,12.12997119140625,-0.997650146484375,0.016632080078125,-0.0129241943359375
1760554538617975300,12.139975341796875,-0.999420166015625,0.0154876708984375,-0.012939453125
1760554538627980300,12.149980224609376,-0.997406005859375,0.01715087890625,-0.0146942138671875
1760554538637984300,12.159984375,-0.99810791015625,0.0167999267578125,-0.014892578125
1760554538647989200,12.1699892578125,-0.999053955078125,0.0196685791015625,-0.01654052734375
1760554538657993200,12.1799931640625,-0.9978179931640625,0.017608642578125,-0.0143890380859375
1760554538667997400,12.18999755859375,-0.9972076416015625,0.0186614990234375,-0.0139617919921875
1760554538678002400,12.20000244140625,-0.9990081787109375,0.018402099609375,-0.0153961181640625
1760554538688006100,12.210006103515624,-0.9991302490234375,0.018829345703125,-0.01611328125
1760554538698010000,12.220010009765625,-0.99774169921875,0.017791748046875,-0.01373291015625
1760554538708015000,12.23001513671875,-0.9987640380859375,0.017425537109375,-0.01141357421875
1760554538718019300,12.240019287109375,-0.998260498046875,0.0172119140625,-0.014862060546875
1760554538728024300,12.2500244140625,-0.99761962890625,0.0164642333984375,-0.0143280029296875
1760554538738028300,12.2600283203125,-0.9980010986328125,0.018035888671875,-0.0179595947265625
1760554538748032300,12.2700322265625,-0.996551513671875,0.0164337158203125,-0.0133819580078125
1760554538758037200,12.280037353515626,-0.9967193603515625,0.01690673828125,-0.0150909423828125
1760554538768041500,12.29004150390625,-0.9972686767578125,0.0164337158203125,-0.0177764892578125
1760554538778045200,12.300045166015625,-0.9991302490234375,0.018829345703125,-0.0197296142578125
1760554538788050200,12.31005029296875,-0.9981689453125,0.0202484130859375,-0.022735595703125
1760554538798054100,12.32005419921875,-0.9986724853515625,0.022064208984375,-0.023773193359375
1760554538808059100,12.33005908203125,-0.9983367919921875,0.021484375,-0.0279541015625
1760554538818063400,12.3400634765625,-0.9981536865234375,0.021759033203125,-0.0298919677734375
1760554538828068400,12.350068359375,-0.9975433349609375,0.02203369140625,-0.031097412109375
1760554538838073300,12.3600732421875,-0.9974517822265625,0.0236053466796875,-0.0301666259765625
1760554538848077300,12.370077392578125,-0.998687744140625,0.024688720703125,-0.034576416015625
1760554538858082300,12.380082275390626,-0.997406005859375,0.0253753662109375,-0.0329437255859375
1760554538868086300,12.390086181640624,-0.998046875,0.0243988037109375,-0.028778076171875
1760554538878090500,12.400090576171875,-0.9986114501953125,0.023345947265625,-0.0279083251953125
1760554538888095500,12.410095458984374,-0.9987640380859375,0.021881103515625,-0.02288818359375
1760554538898099200,12.42009912109375,-0.9984283447265625,0.0197906494140625,-0.0224609375
1760554538908103200,12.430103271484375,-0.9987640380859375,0.0214996337890625,-0.018951416015625
1760554538918108200,12.440108154296874,-0.9993896484375,0.0201873779296875,-0.0188140869140625
1760554538928112400,12.4501123046875,-0.9969940185546875,0.0183868408203125,-0.019927978515625
1760554538938117400,12.460117431640626,-0.9974822998046875,0.017333984375,-0.01953125
1760554538948121300,12.470121337890625,-0.9971466064453125,0.017181396484375,-0.0212554931640625
1760554538958125300,12.480125244140625,-0.9963531494140625,0.01837158203125,-0.020355224609375
1760554538968130300,12.49013037109375,-0.997589111328125,0.0193328857421875,-0.0241546630859375
1760554538978134300,12.50013427734375,-0.99847412109375,0.0206756591796875,-0.026214599609375
1760554538988138200,12.51013818359375,-0.9982452392578125,0.022705078125,-0.02459716796875
1760554538998143200,12.520143310546874,-0.9984893798828125,0.022186279296875,-0.024871826171875
1760554539008147200,12.530147216796875,-0.998138427734375,0.023895263671875,-0.028564453125
1760554539018152200,12.540152099609376,-0.9976043701171875,0.023590087890625,-0.030364990234375
1760554539028156200,12.55015625,-0.997650146484375,0.024322509765625,-0.0285491943359375
1760554539038160400,12.560160400390625,-0.998687744140625,0.0219573974609375,-0.0267181396484375
1760554539048165400,12.570165283203124,-0.997589111328125,0.0218505859375,-0.025543212890625
1760554539058169300,12.58016943359375,-0.99664306640625,0.02117919921875,-0.025146484375
1760554539068174300,12.59017431640625,-0.996917724609375,0.0189361572265625,-0.0246734619140625
1760554539078178000,12.600177978515624,-0.9981842041015625,0.0193023681640625,-0.0251007080078125
1760554539088182300,12.610182373046875,-0.999847412109375,0.019866943359375,-0.0230865478515625
1760554539098187300,12.620187255859374,-0.9961700439453125,0.017974853515625,-0.026519775390625
1760554539108191200,12.630191162109375,-0.996978759765625,0.0197296142578125,-0.02655029296875
1760554539118195200,12.6401953125,-0.99749755859375,0.0184783935546875,-0.02685546875
1760554539128200200,12.6502001953125,-0.9972991943359375,0.02020263671875,-0.0266876220703125
1760554539138204400,12.660204345703125,-0.99639892578125,0.0224151611328125,-0.0260009765625
1760554539148209400,12.67020947265625,-0.9951629638671875,0.017669677734375,-0.031463623046875
1760554539158213400,12.68021337890625,-0.9975128173828125,0.0245208740234375,-0.030517578125
1760554539168217000,12.690217041015625,-1.000152587890625,0.0278167724609375,-0.031158447265625
1760554539178222000,12.70022216796875,-0.9977569580078125,0.025726318359375,-0.0298004150390625
1760554539188226300,12.710226318359375,-0.99737548828125,0.0242767333984375,-0.0296630859375
1760554539198230300,12.720230224609375,-0.99920654296875,0.0246124267578125,-0.0282135009765625
1760554539208235300,12.7302353515625,-0.9986419677734375,0.02532958984375,-0.028472900390625
1760554539218239200,12.7402392578125,-0.9970703125,0.025054931640625,-0.0352325439453125
1760554539228243500,12.750243408203126,-0.9954376220703125,0.024444580078125,-0.0415496826171875
1760554539238248400,12.76024853515625,-0.9963531494140625,0.025787353515625,-0.0435638427734375
1760554539248252400,12.77025244140625,-0.9991607666015625,0.02783203125,-0.0403594970703125
1760554539258257400,12.78025732421875,-0.997100830078125,0.027191162109375,-0.0468597412109375
1760554539268261000,12.79026123046875,-0.9968109130859375,0.026336669921875,-0.048919677734375
1760554539278265300,12.800265380859376,-0.9958038330078125,0.0268402099609375,-0.0496368408203125
1760554539288270300,12.810270263671875,-0.9970703125,0.027618408203125,-0.0511474609375
1760554539298274000,12.820274169921875,-0.9979705810546875,0.0308685302734375,-0.05511474609375
1760554539308279000,12.830279052734374,-0.995697021484375,0.02978515625,-0.056365966796875
1760554539318283000,12.840282958984375,-0.9949951171875,0.0271453857421875,-0.0558929443359375
1760554539328287200,12.850287353515625,-0.995941162109375,0.0281219482421875,-0.055023193359375
1760554539338292200,12.860292236328124,-0.9959259033203125,0.0264892578125,-0.054443359375
1760554539348296200,12.870296142578125,-0.9940643310546875,0.0256805419921875,-0.0535888671875
1760554539358300000,12.8802998046875,-0.9954071044921875,0.026092529296875,-0.0548248291015625
1760554539368305000,12.890304931640625,-0.9952239990234375,0.029266357421875,-0.0556793212890625
1760554539378309000,12.90030908203125,-0.9962310791015625,0.0258331298828125,-0.055389404296875
1760554539388314000,12.910314208984374,-0.9970245361328125,0.029296875,-0.055938720703125
1760554539398318000,12.920318115234375,-0.9965057373046875,0.0291290283203125,-0.058563232421875
1760554539408322000,12.930322021484375,-0.9964599609375,0.0300140380859375,-0.0594940185546875
1760554539418327000,12.9403271484375,-0.9970855712890625,0.031097412109375,-0.058319091796875
1760554539428331300,12.950331298828125,-0.997589111328125,0.0352783203125,-0.0617828369140625
1760554539438335200,12.960335205078126,-0.9964752197265625,0.0328521728515625,-0.056427001953125
1760554539448340200,12.97034033203125,-0.99517822265625,0.0304107666015625,-0.060211181640625
1760554539458344000,12.980343994140625,-0.9963836669921875,0.032470703125,-0.06280517578125
1760554539468348000,12.990347900390624,-0.9953460693359375,0.0325164794921875,-0.068756103515625
