time,seconds_elapsed,z,y,x
1760554526547673600,0.069673583984375,-0.7375543965816498,0.5017410228863358,-0.9099486065506934
1760554526557677800,0.079677734375,-0.7764215951144695,0.2869882651373744,-1.0012604242004453
1760554526567682800,0.089682861328125,-0.35557752497792244,0.1492331146121025,-0.8268646651506424
1760554526577686500,0.0996865234375,0.1879062518775463,-0.1841352089062333,-0.19696604890674352
1760554526587690500,0.1096904296875,0.8540303199738264,-0.9352566508084535,0.4425898918680846
1760554526597695500,0.119695556640625,1.1752233447909355,-1.8296648661389945,0.9284609993189573
1760554526607699700,0.12969970703125,0.985463574001193,-2.125308146896958,1.4970540829896926
1760554526617704700,0.13970458984375,1.0387573572933673,-0.5243786788910627,1.2429045498758553
1760554526627708700,0.149708740234375,1.5299971521705389,1.2237836698204279,0.579874210011214
1760554526637712600,0.159712646484375,1.6463479878783225,0.8031576263487339,0.3011260595506057
1760554526647717600,0.169717529296875,1.9204513447403906,0.4870125325709581,-0.10849051412884145
1760554526657721900,0.179721923828125,2.1047049193292855,0.00777209530621767,-0.3220950882233679
1760554526667726800,0.189726806640625,2.124594445669651,-0.27485797462165357,-0.36479327975381165
1760554526677730600,0.19973046875,2.0856687949478623,-0.3770695180788636,-0.4503078458342701
1760554526687734500,0.209734619140625,2.053332459488511,-0.5492711280852556,-0.6940772200353443
1760554526697739500,0.219739501953125,2.1066683283567427,-0.4490682941019535,-1.0208036213211715
1760554526707743700,0.22974365234375,2.3740508525311945,-0.10194295564889908,-1.4235343810096381
1760554526717748700,0.239748779296875,2.7582646894067526,0.40636078675389287,-1.9045624323435126
1760554526727752700,0.249752685546875,2.872075192981958,0.7349334004282951,-2.467793842850625
1760554526737756700,0.259756591796875,2.8407629398733376,1.0668640923589467,-2.948486524750292
1760554526747761700,0.26976171875,2.763515449541807,1.3659142589509485,-3.112551297791302
1760554526757765600,0.279765625,2.5483973656117915,1.5683753981426358,-2.946629498706758
1760554526767771000,0.28977099609375,2.2351737122386695,1.7204527962699532,-2.5379773861452937
1760554526777774600,0.299774658203125,1.8378157316297292,2.0760399658590556,-2.0523446174949407
1760554526787778600,0.309778564453125,1.5778262403160332,2.506919984580576,-1.5764413618288933
1760554526797783600,0.319783447265625,1.5185580587893723,2.6162045351639387,-1.0033780008763074
1760554526807787800,0.329787841796875,1.3613053038507699,2.298757565007359,-0.48565264239460226
1760554526817792800,0.339792724609375,1.1613438725203276,1.7953576689980923,0.06528817246854304
1760554526827796700,0.349796630859375,1.0569693058103322,1.1862791379429398,0.6678766108520329
1760554526837800700,0.35980078125,0.893410728725791,0.5554581461571156,1.2421430639840663
1760554526847805700,0.3698056640625,0.7636673274815082,-0.11914148933961986,1.6633143202483653
1760554526857809700,0.3798095703125,0.393559172847867,-0.3366992215067148,1.6968381119266152
1760554526867814700,0.389814697265625,-0.10895078858435153,-0.32465193309932944,1.026628966473788
1760554526877818600,0.399818603515625,2.68743641846776,-0.1636442095413804,-1.4065524126790463
1760554526887822600,0.409822509765625,2.8686656767994165,-0.05593048847131431,0.9946600030221044
1760554526897827600,0.41982763671875,-0.08042319775819778,-1.5480831362202763,9.38146702387631
1760554526907831600,0.42983154296875,-1.1711778687924146,-2.597311326384544,7.28551531984508
1760554526917836500,0.43983642578125,-3.677272800725698,-1.88660285115242,6.411967813974618
1760554526927840800,0.4498408203125,-5.0971150492191315,-0.36536154462844134,4.400200706061721
1760554526937844700,0.4598447265625,-3.30885625244081,0.5635752555087209,1.5918147259190678
1760554526947849700,0.469849609375,2.494042675089836,1.626716235691309,-5.387528904891014
1760554526957853400,0.479853515625,0.2635392927497625,2.064765123128891,-5.15946424562633
1760554526967858400,0.4898583984375,0.3965466642260551,1.162673805949837,-4.525789910236001
1760554526977862700,0.499862548828125,0.24067279642522332,-0.24533209347315132,-2.207746337739378
1760554526987866600,0.50986669921875,-0.9401759870320558,-1.7680847544081508,0.9745585874967276
1760554526997871600,0.51987158203125,-1.4635931274145841,-2.159940484338999,4.079890601558983
1760554527007875600,0.52987548828125,-0.8061538855552672,-2.669897839167714,4.187259089387953
1760554527017880600,0.539880615234375,-0.05113572847545147,-1.726611318899691,4.884835988107324
1760554527027884800,0.549884765625,-0.42149698108732697,-0.6034607642386108,4.471128930243849
1760554527037888800,0.559888671875,0.3202519445747137,-0.9500132712397724,0.38657998148500916
1760554527047893800,0.569893798828125,0.9197475315093994,-1.639124174104631,-2.7611934363350272
1760554527057897500,0.5798974609375,4.079195312771201,-0.3035411396020092,-4.163677722792327
1760554527067902500,0.58990234375,3.6151188346296546,1.992135647986829,-2.2331774238549174
1760554527077906700,0.59990673828125,1.0388315915733575,1.289367171973735,1.8787663123078644
1760554527087910700,0.60991064453125,1.1756915468245743,-0.45349926228672266,3.875331028783321
1760554527097915600,0.61991552734375,1.6148726531624793,-2.0731603187695145,5.293905449298024
1760554527107919600,0.629919677734375,2.7144968593508003,-3.6916836033940315,5.1756344591826196
1760554527117924600,0.639924560546875,2.780628496906161,-3.4940833482369777,4.496620806635916
1760554527127928800,0.6499287109375,1.7887527177751064,-1.5250987126044928,4.201511194363237
1760554527137932500,0.6599326171875,0.9964438176989555,1.1078889073170721,4.137873419450223
1760554527147937500,0.6699375,0.2667132466107607,2.6106866485252973,3.1786724139526483
1760554527157941500,0.67994140625,-0.22987726164460182,2.7473239009365438,2.1951583665840326
1760554527167946500,0.689946533203125,-0.6821335381329059,2.8594372452050445,2.707940569575131
1760554527177950700,0.69995068359375,0.077612231990695,2.6834794975355267,3.205563051226735
1760554527187955700,0.709955810546875,0.05165419939160347,2.7069696787163613,3.7442768372014164
1760554527197959700,0.719959716796875,-0.949134954035282,2.638712427309155,3.3616385790795085
1760554527207963600,0.729963623046875,-1.3138801203310488,3.191735601404309,2.1228375189997255
1760554527217968600,0.73996875,-1.7641168736904858,3.997557478526234,0.8041584739543497
1760554527227972900,0.749972900390625,-2.4905104093104597,4.6920448867976665,0.11700380145749077
1760554527237977900,0.759977783203125,-2.9429075555741786,4.678248416635394,-0.5604913180187344
1760554527247981600,0.769981689453125,-2.5376778186768294,4.059050934886932,-1.345655168645829
1760554527257985500,0.779985595703125,-1.4387725744128226,3.7546176139518614,-0.7569580391012132
1760554527267990500,0.789990478515625,-0.8922071981549262,2.942000377601385,0.049945130451396105
1760554527277994800,0.799994873046875,-0.37278584941029547,1.9220229779712854,0.5159826064676046
1760554527288000000,0.81,-0.2757826882511377,0.7858354662783443,0.9853612826704978
1760554527298004200,0.820004150390625,-0.4236526978164911,-0.29239713844358917,1.0774814940936863
1760554527308008000,0.830008056640625,-0.2738186947017908,-0.32429522861614823,0.1954652889549732
1760554527318013000,0.840012939453125,-1.165251985874772,-0.640208121073246,0.22208967650830744
1760554527328017000,0.850016845703125,-0.7022673946231603,-1.360195296782255,-0.03622735154852271
1760554527338022000,0.86002197265625,0.5174351433634757,-2.0222424708284437,-1.7676032545015214
1760554527348026000,0.870026123046875,0.5913719017118215,-2.804525505322218,-1.9446277546197175
1760554527358030000,0.880030029296875,0.35751755312979216,-2.6575118203252552,-1.5803922914117574
1760554527368035000,0.89003515625,0.18940262791514395,-2.8855080905288455,-1.8147763629563152
1760554527378039000,0.9000390625,-0.18022271163761613,-3.1359988088741897,-1.792267886289209
1760554527388044000,0.9100439453125,-0.7725532292485237,-2.9224598108291624,-1.5690606039278208
1760554527398048300,0.92004833984375,-1.1379466303199528,-3.100025870478153,-2.0110946154788136
1760554527408052000,0.930052001953125,-1.1555717188596726,-3.2021374606922266,-2.4776500509545207
1760554527418057000,0.940056884765625,-1.382564364978671,-3.4044214897513387,-2.8227997054204343
1760554527428061000,0.95006103515625,-1.4141145184963941,-3.026585955736041,-2.8787667995750903
1760554527438066000,0.96006591796875,-1.2926309960752724,-3.349849064825475,-2.3800918862611056
1760554527448070100,0.970070068359375,-1.573035498908162,-3.7403000425249338,-1.961478936177492
1760554527458074000,0.98007421875,-1.139744035130739,-3.9139869226530193,-1.668003647108376
1760554527468079000,0.9900791015625,-0.7824234658777713,-3.9209371801823374,-1.348608027102053
1760554527478083000,1.0000830078125,-0.7500216639667749,-3.9885102487176654,-1.5977512763611972
1760554527488088000,1.010088134765625,-1.1734183411955832,-3.3943159830614924,-0.41115708111971616
1760554527498092300,1.02009228515625,-1.148256427410245,-2.6154332585304974,-0.34361126591749486
1760554527508096000,1.030095947265625,-1.3540215765833854,-1.9151881635151802,-0.28930019534155726
1760554527518101000,1.04010107421875,-1.3662643875628708,-1.5961293742477893,-0.05080861541293561
1760554527528105000,1.05010498046875,-1.4235913718938826,-2.0824217758506536,0.24533238573409616
1760554527538110000,1.06010986328125,-0.7724234653890133,-2.452990533733368,0.9347240783017128
1760554527548114200,1.0701142578125,-0.0035603228300809856,-3.056183221620321,0.900200096604973
1760554527558118100,1.0801181640625,0.15129180070757864,-3.0578213442161677,1.1026700766902415
1760554527568123100,1.090123046875,0.3450426869601011,-2.4344229036465284,0.689904026003927
1760554527578127000,1.100127197265625,0.09463760107159613,-1.7584418967939912,0.11916413956284522
1760554527588132000,1.110132080078125,0.27357787168323994,-1.270361881121993,0.12873502791933714
1760554527598136000,1.120135986328125,0.16445055748820303,-1.1373100859820842,0.15172047444842754
1760554527608140000,1.13014013671875,-0.5556272191137075,-0.8456139354147016,0.08228774952106177
1760554527618145000,1.14014501953125,-0.6509089633077383,-0.48569312053546304,0.010542436802387237
1760554527628149000,1.15014892578125,-0.7465648015111684,-0.48854193409532304,0.14218509579673408
1760554527638154000,1.160154052734375,-0.9911170697182417,-0.40157895930483933,0.23051811683140694
1760554527648158000,1.170157958984375,-0.9860369899749756,-0.44626390420570966,0.22443010215461254
1760554527658162200,1.180162109375,-0.9430044884562492,-0.5607932235747576,0.3313547917388379
1760554527668167200,1.190167236328125,-1.058271620580554,-0.5026540460780262,0.39855917309224603
1760554527678171100,1.200171142578125,-0.602038841676712,-0.22799743924736976,0.19015987602323292
1760554527688176000,1.210176025390625,1.2672633305847645,-0.5461215780131519,0.19230287940129637
1760554527698179800,1.220179931640625,-1.429941033181548,0.3653622752808034,-1.3827103493206203
1760554527708184000,1.23018408203125,-0.9187222801148891,0.9924820744611322,1.4078082579590379
1760554527718189000,1.24018896484375,-0.42562896632552144,-0.6956383318722248,-0.07217559389472007
1760554527728193000,1.250193115234375,-0.20987141544818877,0.11156608564928173,-0.14498108319081365
1760554527738198000,1.260197998046875,-0.6189093124568462,0.6873093333356082,0.8122759486321359
1760554527748202000,1.270201904296875,-0.4376660255998373,0.38083413130939003,0.30574886051304634
1760554527758206200,1.280206298828125,-0.35676118180453775,0.42903482924625275,0.3777434718176722
1760554527768211200,1.290211181640625,-0.18440964193344114,0.296797126968205,0.2517717711318284
1760554527778215200,1.300215087890625,-0.007672434324026108,0.1270956632144749,0.4573607600204646
1760554527788220200,1.31022021484375,0.23339608342051504,-0.01864317954108119,0.5589839821957051
1760554527798224000,1.320223876953125,0.739594377976656,-0.08662731309533118,0.2003237618368119
1760554527808228000,1.33022802734375,0.4996919814020395,-0.04382730515822768,0.24438407203331589
1760554527818233000,1.340233154296875,-0.16710370234549043,-0.46436917747780676,-0.5295081507340074
1760554527828237000,1.350237060546875,-0.7567892584055662,-0.4762858252428472,-1.142877730046585
1760554527838242000,1.360241943359375,-0.7901473381280899,-0.05280030068680644,-0.7855256696768105
1760554527848246000,1.37024609375,-0.8015168734043836,0.5682166515737772,-0.42631687552444636
1760554527858250200,1.380250244140625,-0.34171208123266694,0.9556453588426113,-0.4658428302269429
1760554527868255200,1.390255126953125,0.8588608088701963,0.1946761844038963,0.8733828898932784
1760554527878259200,1.40025927734375,0.4694651854425668,-0.5016621124312282,0.8748242478080094
1760554527888264200,1.41026416015625,0.8532400463789701,0.18691899440586565,-0.040473318555206056
1760554527898268000,1.420267822265625,-0.31008418630361556,-0.006066168171167373,-0.5871382096648216
1760554527908272000,1.430272216796875,-0.8285340596675872,-0.26064751683101056,-0.3909792393572628
1760554527918277000,1.440277099609375,-0.035275896042585374,0.0069666241422295565,0.19792123073972762
1760554527928281000,1.450281005859375,0.24049627081453798,-0.2713689634621143,0.7301089028812945
1760554527938286000,1.4602861328125,0.3717594289720058,-0.9087351391077041,1.5552867839887736
1760554527948290000,1.4702900390625,-0.08464286127984523,-0.6504844542853534,1.0224685588587075
1760554527958294300,1.480294189453125,-0.35083179175555707,-0.60216845940575,0.8307168105341494
1760554527968299300,1.49029931640625,-0.22077684034407138,-0.4504023191846907,0.2685492298662662
1760554527978303000,1.500302978515625,0.029720600003004072,-0.5837355616144836,-0.1998129262378439
1760554527988308000,1.510307861328125,0.6451864940077066,-0.5487194855518639,-0.04946330175120383
1760554527998312000,1.52031201171875,0.7443360195457935,-0.5396231559045612,-0.033451749355345964
1760554528008316200,1.530316162109375,0.43155368019938467,-0.284054403642565,0.14965165055142715
1760554528018321200,1.540321044921875,0.5908779807150364,-0.36866760043650865,0.19125452112583444
1760554528028325000,1.5503251953125,0.1809136165112257,-0.16391206669732927,-0.10657278914032503
1760554528038330000,1.560330078125,-1.0899836866617203,-0.2677988498903811,0.2567514227079227
1760554528048334000,1.570333984375,-0.4187842149972915,0.06267682092636823,0.48704877292811866
1760554528058338000,1.580338134765625,0.5276882418304681,0.06069193071946501,0.41215712500773366
1760554528068343000,1.590343017578125,0.47894437692761416,-0.41443931766077874,0.33453287378568203
1760554528078347000,1.600346923828125,0.30712650554180143,-2.2539261973731217,1.2450642121277748
1760554528088352000,1.61035205078125,0.04818506197631359,0.0186851189866662,0.3226716825349256
1760554528098356000,1.62035595703125,-0.44939387279450893,-0.24395985527187583,-0.018832308905012904
1760554528108360000,1.63035986328125,-0.2602291452884674,-0.3323128231160343,-0.8325654340755194
1760554528118365000,1.640364990234375,0.6283277136653661,-0.07200798224285244,-0.9410554002150893
1760554528128369200,1.650369140625,1.583043098181486,-0.32201836972534653,-1.0255483316302298
1760554528138374100,1.6603740234375,1.8506261133641004,-0.5545620010349899,-1.0117643556233495
1760554528148378000,1.670378173828125,2.3002982185781002,-0.16332926184069363,-1.8030593294166029
1760554528158382000,1.680382080078125,4.894616792887449,-0.7535025648850947,-2.0640911693900823
1760554528168387000,1.690386962890625,9.370967257171868,-0.5532961458176374,-2.1842551336452365
1760554528178391000,1.70039111328125,11.193992831426858,0.13821489525781944,-1.2768664407104253
1760554528188396000,1.71039599609375,-16.813543024253843,0.3315496201911941,7.466596109616756
1760554528198400000,1.72039990234375,1.385654732209444,-0.1768181090922095,2.3576240338653323
1760554528208404000,1.730404052734375,-20.783536204028128,0.931891631354764,-0.7244692895591258
1760554528218409000,1.740408935546875,-23.382933104515075,0.2343114994986914,-0.35991270463801917
1760554528228413200,1.7504130859375,25.324747555279732,2.564517894807458,0.3516463595414534
1760554528238418200,1.760418212890625,11.101893224400282,1.4156182010576128,0.040503686294006185
1760554528248422100,1.770422119140625,11.979266426038741,0.16731095188800243,-0.18483953951699658
1760554528258425900,1.78042578125,-37.5416712293148,-2.1111650552541015,1.6963976746827363
1760554528268430800,1.790430908203125,13.779799597978592,0.6861066064823419,-0.4503544979875907
1760554528278435000,1.80043505859375,10.944454591500758,0.05062653684429824,0.13035792554658837
1760554528288440300,1.8104404296875,-13.705587529820203,-0.416920503484644,0.087399238182744
1760554528298444000,1.820444091796875,2.02015558155179,-0.22300576843991873,-1.0792683775104581
1760554528308448000,1.830447998046875,4.219019963046908,-0.03779785226825624,0.5860157084409147
1760554528318453000,1.840452880859375,-2.9833658226907254,-0.01326603481369093,0.9554998859573155
1760554528328457200,1.850457275390625,-1.179948035225272,0.2952857725571841,-0.47901093935780226
1760554528338462200,1.860462158203125,-0.3264981454879045,0.1328455959101673,-0.09319472705321385
1760554528348466200,1.870466064453125,1.6038316191881894,-0.15607669689655304,0.999942619600147
1760554528358470100,1.88047021484375,-1.1230027436882257,0.06802469389350153,0.20956901670182124
1760554528368475100,1.89047509765625,0.6672732381314039,-0.10709966255864128,0.37541667283792046
1760554528378479400,1.900479248046875,-0.0942301893144846,-0.029518428494408725,0.19706417551897465
1760554528388484400,1.910484375,-0.00879471635222435,-0.029216267210058867,0.10764407163364813
1760554528398488000,1.920488037109375,0.021713234636187552,-0.004179642038512975,0.05649477585714776
1760554528408492000,1.930491943359375,0.005077741655707359,0.007860988299222663,0.08484786406634375
1760554528418497000,1.9404970703125,0.011781623208522796,0.0025590642325114456,0.15099309175563974
1760554528428501200,1.950501220703125,-0.0015647650986909865,0.04411899984749034,0.21238918868908657
1760554528438506200,1.96050634765625,0.014117957201600074,0.019512628452526406,0.21217004777938125
1760554528448510200,1.97051025390625,0.01153963114619255,-0.012491497644083574,0.18389955525314433
1760554528458514200,1.98051416015625,0.007312953361868858,-0.02115643187048845,0.14704033554187043
1760554528468519200,1.990519287109375,0.019542904859781263,-0.06100676882229745,0.13829328512311911
1760554528478523100,2.000523193359375,0.02518763274848461,-0.0678051967907697,0.133052562324889
1760554528488528100,2.010528076171875,0.01871522186398506,-0.08735333494809455,0.16408897590050472
1760554528498532000,2.020531982421875,0.02257423537969589,-0.11507698898022062,0.1690129882992245
1760554528508536000,2.0305361328125,0.02898819407522678,-0.10786648221267386,0.174754801620543
1760554528518541000,2.040541015625,0.034219664987921714,-0.07826452188696711,0.20959194091968236
1760554528528545000,2.050544921875,0.025251345634460447,-0.038009905850049104,0.19745076368376613
1760554528538550000,2.060550048828125,0.005664017111063003,-0.00843381061796099,0.10862681732699274
1760554528548554200,2.07055419921875,0.018694179075956344,-0.051747083573136475,0.043051708542695265
1760554528558558200,2.08055810546875,-0.003451601758599281,-0.06462594570014625,-0.01379783100229688
1760554528568563200,2.090563232421875,0.027663082951307295,-0.06945098210326396,-0.007431784835411235
1760554528578567200,2.100567138671875,0.00265606746673584,-0.058576399870216844,-0.04416114935562945
1760554528588572200,2.110572265625,0.009816460615396498,-0.052200836956314736,-0.024639342082804067
1760554528598576000,2.120576171875,0.01113748008608818,-0.0570264487481676,-0.015457535242289305
1760554528608580000,2.130580078125,0.0021259061127901074,-0.04890728443679399,0.007950776341371238
1760554528618585000,2.140585205078125,0.014943302109837532,-0.08267188086728565,0.005906803757837042
1760554528628589000,2.150589111328125,0.01591536201238632,-0.11014326803823932,-0.05799041667580604
1760554528638594000,2.160593994140625,0.03617255262136459,-0.14739807207151315,0.012947643913747742
1760554528648598300,2.170598388671875,0.0374181687682867,-0.17055355053842067,0.0958132298553828
1760554528658602200,2.180602294921875,0.05123860432803631,-0.14700938328118063,0.17050943740205837
1760554528668607200,2.190607177734375,0.05415770664513111,-0.11160143095729871,0.23772896152567116
1760554528678611000,2.20061083984375,0.03616027766168117,-0.05745807249792851,0.3017734906086698
1760554528688616000,2.210615966796875,0.010554711762070654,-0.02950870168483816,0.315974997907877
1760554528698620200,2.2206201171875,0.005622516056895256,0.007626503689913079,0.2660055367328226
1760554528708624100,2.2306240234375,-0.006925999870896339,0.047856642872700465,0.22018073761444537
1760554528718629000,2.240629150390625,-0.04387012138664722,0.08478914701589382,0.0889665331652388
1760554528728633000,2.250633056640625,-0.05942600243687629,0.12875341295939868,-0.04243701984360814
1760554528738638000,2.26063818359375,-0.03578033843338489,0.1220302787168417,-0.0045301999086979775
1760554528748642300,2.270642333984375,-0.023367431584000585,0.0668231543503236,0.07574502247986384
1760554528758646300,2.280646240234375,0.003262801188230514,0.005409494360722601,0.18591697775647043
1760554528768651300,2.2906513671875,0.026006547915935516,-0.02430943427500315,0.27238349253321065
1760554528778655000,2.300655029296875,0.03169160781502724,-0.04669928953112103,0.2810591490830295
1760554528788660000,2.310659912109375,0.02810556602180004,-0.07117440836238674,0.30845337023138997
1760554528798664200,2.320664306640625,0.03784311618208885,-0.08722729741563089,0.2880914040736854
1760554528808668200,2.330668212890625,0.03052665568888187,-0.110411746248696,0.26792543541211633
1760554528818673200,2.340673095703125,0.023665537747740745,-0.07941968327146023,0.25521462332839145
1760554528828677000,2.350677001953125,0.03326397169828415,-0.05892972508622333,0.20796802951227872
1760554528838682000,2.36068212890625,0.01756371374130249,-0.03469446115912869,0.14524694931907578
1760554528848686300,2.370686279296875,0.011573533415794372,-0.03398259569588117,0.10687843928970396
1760554528858690300,2.380690185546875,0.04372340639233589,-0.07908969326526857,0.0903183678993024
1760554528868695300,2.3906953125,0.01614975529015064,-0.07844580587116069,0.0785512664064765
1760554528878699000,2.400698974609375,0.02432663200497627,-0.09021716341399587,0.08249136406807228
1760554528888704000,2.4107041015625,0.036089550513029096,-0.09225922716823406,0.11356286722337826
1760554528898708200,2.420708251953125,0.020175357544422148,-0.07832864576489665,0.12922830959530546
1760554528908712200,2.430712158203125,0.02775777549743652,-0.09710333359800279,0.15184673117659986
1760554528918717200,2.44071728515625,0.010506780967116356,-0.09035111025827937,0.11845339747760444
1760554528928721200,2.45072119140625,0.029327216771245,-0.06674553167000413,0.12835680572409183
1760554528938725000,2.46072509765625,0.017030629777908323,-0.055397203578520564,0.1115192143002525
1760554528948730000,2.470730224609375,0.017905074524879456,-0.05439031895776279,0.049758686234895134
1760554528958734000,2.480734130859375,0.009649871876835822,-0.051640782787604256,0.021743958568014202
1760554528968739000,2.490739013671875,-0.006228665256500244,-0.013869626730028539,0.014645469940733164
1760554528978743000,2.500742919921875,-0.014312602990865706,0.025758025648118927,0.03995033586071804
1760554528988748000,2.510748046875,-0.007866495591402053,0.03287402253262699,0.06643052917039022
1760554528998752000,2.520751953125,-0.02175298212468624,0.04353273352528922,0.12387841820102184
1760554529008756200,2.530756103515625,-0.0046522097200155255,0.048834648458845914,0.10562252094447612
1760554529018761200,2.54076123046875,0.0067693480044603346,0.00576910318704322,0.10537497592419386
1760554529028765200,2.55076513671875,0.009516600885987282,-0.019746738602500407,0.12147502858741208
1760554529038770200,2.560770263671875,0.026920155629515646,-0.06058232373199425,0.10063561764368786
1760554529048774100,2.570774169921875,0.018714052820205686,-0.07938790902686305,0.03345929334098473
1760554529058778000,2.580778076171875,0.013777180939912795,-0.06144165310822427,0.010106858396716415
1760554529068783000,2.590783203125,0.021388824987411497,-0.08026205237973481,0.029070173270255326
1760554529078787000,2.600787109375,0.02059972043633461,-0.060508043786231425,0.03335533977616578
1760554529088791000,2.610791015625,0.02219312710762024,-0.10041657719868234,0.07733343331562355
1760554529098796000,2.620796142578125,0.027823826470971105,-0.06174280974557623,0.12985767527371644
1760554529108800300,2.63080029296875,0.0228396083176136,-0.0685059654712677,0.1466584966174327
1760554529118805200,2.64080517578125,0.025209260058403012,-0.05516428073863498,0.23169822999406606
1760554529128809200,2.650809326171875,0.021312252619862554,-0.02646673103990033,0.25304666817216204
1760554529138814200,2.660814208984375,0.011732523369789123,-0.02221460828706622,0.19527296298695726
1760554529148818200,2.670818115234375,0.001995557731389999,-0.011315457868343218,0.1286117303332314
1760554529158822100,2.680822265625,0.024574469286203382,-0.024239245982468127,0.1513130992239341
1760554529168827100,2.6908271484375,0.021856442499160765,-0.0493859347992111,0.13771832564622163
1760554529178831000,2.7008310546875,0.031105916881561276,-0.04135636673374101,0.13934426461393012
1760554529188835000,2.7108349609375,0.035114568001031875,-0.07757825665585696,0.20181849390659481
1760554529198840000,2.720840087890625,0.013992284995317458,-0.06431500745429657,0.21230476180864497
1760554529208844300,2.73084423828125,0.014276362633705138,-0.03963878569351509,0.22485110404565928
1760554529218849300,2.740849365234375,0.00783610045313835,-0.03871199883795343,0.22670911646988243
1760554529228853200,2.750853271484375,-0.001294131463766098,-0.025952881499938664,0.16704901301618663
1760554529238857200,2.760857177734375,0.006480009669065475,-0.052569898597570136,0.1553858650881797
1760554529248862200,2.7708623046875,0.024880758756399154,-0.06608772534839809,0.14958468626243993
1760554529258866200,2.7808662109375,0.030409166789054868,-0.06484749776264652,0.12351283629164099
1760554529268871200,2.79087109375,0.004368716603517532,-0.021286378393089396,0.11750714786974713
1760554529278875100,2.800875244140625,-0.005956278055906296,-0.010005736109800637,0.10492100334530696
1760554529288879600,2.810879638671875,0.007963526225090027,-0.020856106350198387,0.1203461158890277
1760554529298884600,2.820884521484375,0.0070674541682004925,-0.023337684899708253,0.1063254998483695
1760554529308888300,2.830888427734375,0.0030108722537755964,-0.018404210552899165,0.09263879193719476
1760554529318893300,2.840893310546875,0.008517068454623222,-0.07423997907862066,0.08506967185717075
1760554529328897500,2.8508974609375,0.02732522929906845,-0.09973052203012629,0.07388532042205333
1760554529338901500,2.860901611328125,0.027117724028229713,-0.11014883012934587,0.0721237541096285
1760554529348906500,2.870906494140625,0.025857494834065436,-0.07252046180963516,0.0880474638252519
1760554529358910500,2.880910400390625,0.03328501448631287,-0.07864617814831436,0.12806712032882495
1760554529368915500,2.89091552734375,0.014843348866701125,-0.03509979969016276,0.1822749862586148
1760554529378919700,2.900919677734375,-0.0031160861939191816,-0.020507228980446233,0.21824324847953394
1760554529388923400,2.91092333984375,0.011278349861502647,-0.014490224580094217,0.23110563439577816
1760554529398928600,2.9209287109375,-0.009019172757863998,0.006100116106541827,0.20848556884666902
1760554529408932400,2.930932373046875,-0.021812018835544584,0.03353163705798797,0.17029908258700743
1760554529418937300,2.940937255859375,0.004761515313386917,0.024820452537061645,0.15662196448808535
1760554529428941600,2.950941650390625,0.004694879817962646,-0.00413069746340625,0.10860067823873833
1760554529438945500,2.960945556640625,0.013445757028460502,-0.0331728776150383,0.08525785137303173
1760554529448950500,2.970950439453125,0.030113983234763143,-0.06295450535658746,0.09275998889775947
1760554529458954500,2.98095458984375,0.03300502850115299,-0.06722501314948312,0.117242322921101
1760554529468959500,2.99095947265625,0.017779986840486525,-0.06660568480789661,0.07316562784537672
1760554529478963700,3.000963623046875,0.016764087796211243,-0.05884425702616572,0.10723777412138878
1760554529488967400,3.010967529296875,0.020523732590675352,-0.06311012517656199,0.10552830332238226
1760554529498972400,3.020972412109375,0.011706219884753226,-0.055863752511190246,0.06522480664243921
1760554529508976400,3.030976318359375,0.011402268502116203,-0.06122743496880866,0.05743864627825096
1760554529518981400,3.0409814453125,0.013330021694302557,-0.07530165349338203,0.0464684307841584
1760554529528985600,3.050985595703125,0.023925649988651276,-0.054583960100030526,0.059139056987967335
1760554529538989600,3.060989501953125,0.0048895256072282785,-0.04354573913733475,0.08452829498946667
1760554529548994600,3.07099462890625,0.010993103179335594,-0.03420434868778102,0.09784324697880074
1760554529558998500,3.08099853515625,0.010672785183787345,-0.029316530980449167,0.1416836125480011
1760554529569003500,3.09100341796875,0.0007879355072975159,0.02828741626157425,0.1661837196900509
1760554529579007700,3.1010078125,-0.003996376159787178,0.009799116754950954,0.15108891681293024
1760554529589011500,3.111011474609375,0.017122984236478806,-0.003833376750955358,0.17075466260109096
1760554529599016400,3.121016357421875,-0.00528816953599453,-0.0027595369743648917,0.1861324654043652
1760554529609020400,3.1310205078125,-0.006742459997534751,-0.025492981503764167,0.17737029961487277
1760554529619025400,3.141025390625,0.018144728499650955,-0.02114937194203958,0.148386617317982
1760554529629029600,3.151029541015625,0.012353870138525963,-0.017099996086535976,0.14027124326573684
1760554529639033600,3.16103369140625,0.006408113476634025,-0.013267322588479145,0.1344295680328272
1760554529649038600,3.17103857421875,0.008238836035132409,-0.018265130875771866,0.11176456736344843
1760554529659042600,3.18104248046875,0.008261047866940497,-0.04704658686514012,0.12055113694183528
1760554529669047600,3.191047607421875,0.020243162083625792,-0.04478801254970021,0.0910587196715176
1760554529679051500,3.201051513671875,0.010221534284949303,-0.04641837196419946,0.11093328590476885
1760554529689055500,3.211055419921875,0.0015425532668828963,-0.05009553524013608,0.12389038263345137
1760554529699060500,3.221060546875,0.019646949756145476,-0.06298249847521074,0.15591977103548124
1760554529709064400,3.231064453125,0.01710369501411915,-0.04057024872419424,0.12044818802401423
1760554529719068400,3.241068359375,0.025334347742795943,-0.06955600424716249,0.13262779757417736
1760554529729073400,3.251073486328125,0.017850129467248916,-0.07311136777433566,0.11441970324842259
1760554529739077600,3.26107763671875,0.028020810347795484,-0.07332851765635423,0.1172973593102768
1760554529749082600,3.27108251953125,0.021282442003488538,-0.058654250879399475,0.12029652285994961
1760554529759086600,3.281086669921875,0.01334346569776535,-0.06708078237320296,0.135356217891071
1760554529769090300,3.29109033203125,0.03114507984817028,-0.06845589751815423,0.14132356533026322
1760554529779095300,3.30109521484375,0.03338146059811115,-0.0618908216478303,0.14231495098778976
1760554529789099500,3.311099609375,0.012121230426430702,-0.0439688873196952,0.08548124833274633
1760554529799104500,3.3211044921875,0.03065758859217167,-0.027952302555693313,0.11848008455513044
1760554529809108500,3.3311083984375,0.02809329106211662,-0.013568360494822263,0.107758400462009
1760554529819112400,3.341112548828125,0.018497195199131965,-0.023022207476058973,0.08142028250414877
1760554529829117400,3.351117431640625,0.006202946293354034,-0.01607719237743877,0.08450149831408635
1760554529839121700,3.36112158203125,0.014407880058884619,-0.013831495809881016,0.0972252612109296
1760554529849126700,3.371126708984375,0.004658054938912391,-0.012436333390744403,0.10348623956814408
1760554529859130600,3.381130615234375,-0.0053904608666896815,-0.010748334638029336,0.09693170335814356
1760554529869134300,3.39113427734375,0.00611468348801136,0.0005417695933487266,0.12192819744870066
1760554529879139300,3.401139404296875,0.013725743013620376,-0.01790338489129208,0.07271136300554498
1760554529889143600,3.4111435546875,0.0144523037225008,-0.04407009180500172,0.09755688605178146
1760554529899148500,3.4211484375,0.004852116206288337,-0.032768269736366346,0.06729810578515753
1760554529909152500,3.431152587890625,0.012005495092272759,-0.043179152580956,0.07322091996287927
1760554529919156500,3.441156494140625,0.028878303959965705,-0.052947655001934615,0.09655653163651004
1760554529929161500,3.451161376953125,0.023904607200622558,-0.09381804658332839,0.08295518218753858
1760554529939165700,3.461165771484375,0.04182780190408229,-0.09695969647676683,0.10398319277223199
1760554529949170700,3.471170654296875,0.03745148651599884,-0.1003715416137129,0.13004769968679175
1760554529959174700,3.481174560546875,0.018115502405166625,-0.06911927506402135,0.12249112856108695
1760554529969178400,3.491178466796875,0.017333412116765975,-0.06914983459906653,0.09261546586053446
1760554529979183400,3.501183349609375,0.025237901630997657,-0.06425114843784831,0.1413631666882895
1760554529989187600,3.5111875,0.023716975674033164,-0.04750790250026621,0.14107717108745127
1760554529999192600,3.521192626953125,0.02160042191147804,-0.04006574240131303,0.11832257417216896
1760554530009196500,3.531196533203125,0.013799392771720886,-0.017471788540994748,0.08831031601252033
1760554530019200500,3.541200439453125,-0.013892331752181053,0.0026684611574281005,0.1006115061157383
1760554530029205500,3.55120556640625,-0.010593874728679656,0.028489752166951075,0.1254099386172369
1760554530039209700,3.561209716796875,-0.007440379133820533,0.043157936262991276,0.1252897463036701
1760554530049214700,3.571214599609375,0.007692892590165138,-0.0029768695194739847,0.11970036533139645
1760554530059218400,3.581218505859375,0.016830138769745824,-0.021446007667900994,0.11100845176652073
1760554530069222400,3.591222412109375,0.027454408636689184,-0.061474395467201244,0.08574205469340085
1760554530079227400,3.601227294921875,0.020555881294608114,-0.04512608539764769,0.04594340226305649
1760554530089231600,3.611231689453125,0.004663315635919571,-0.020050032398011536,0.03796745494781062
1760554530099236600,3.621236572265625,0.01658990027308464,-0.03132365128546953,0.06190154397124424
1760554530109240600,3.631240478515625,-0.003965981021523475,-0.01912198516712524,0.0769294190919958
1760554530119244500,3.64124462890625,0.006752396869659423,-0.0068254255732521415,0.08137889104783534
1760554530129249500,3.65124951171875,-0.004824643677473068,-0.01823293650606647,0.09562595452181995
1760554530139253500,3.66125341796875,-0.0009866729497909545,-0.031209879579534753,0.09888592443214729
1760554530149258500,3.671258544921875,0.020062544819712636,-0.02351328806178644,0.08226847856501117
1760554530159262500,3.681262451171875,0.021517419803142545,-0.054369988555787126,0.13496471608914434
1760554530169266400,3.691266357421875,0.03180851219296455,-0.05878922977014445,0.12766208319189026
1760554530179271400,3.701271484375,0.03178220870792865,-0.06654987210058606,0.1427638090001419
1760554530189275400,3.711275390625,0.039103345376253124,-0.0884323988890741,0.16981230371706188
1760554530199280400,3.7212802734375,0.04195347411036491,-0.1153612036159262,0.20526372072333468
1760554530209284600,3.73128466796875,0.043166357031464576,-0.09350004840902984,0.19327459224397314
1760554530219288600,3.74128857421875,0.030770401316881177,-0.08435874710883945,0.13933589864438398
1760554530229293600,3.75129345703125,0.03768061909675598,-0.07691970141557976,0.15320671268450095
1760554530239297500,3.761297607421875,0.018100304836034774,-0.061050187838915734,0.16728108647270126
1760554530249301500,3.771301513671875,0.01571194839477539,-0.06591366568943485,0.09194459912795573
1760554530259306500,3.781306396484375,0.004487374547123908,-0.040887762841302897,0.05611207384960726
1760554530269310500,3.791310546875,0.0064244800895452495,-0.022495717650232835,0.07633496033018454
1760554530279315500,3.8013154296875,-0.0007709843724966049,0.010543048723740503,0.047798674740921705
1760554530289319000,3.81131884765625,0.014027356308698653,0.011057336655119434,0.037578528695460404
1760554530299324000,3.821323974609375,-0.0040963294029235835,0.017836849860567598,0.053471642343420535
1760554530309328000,3.831327880859375,-0.013700024050474166,0.012177289728913455,0.06762041480839252
1760554530319331800,3.841331787109375,-0.011938859596848487,0.005591079739015549,0.044664760629367084
1760554530329336800,3.8513369140625,0.010171265402436255,0.01590642978725955,0.0403791009331122
1760554530339340800,3.8613408203125,-0.013503624695539474,-0.0015109342859126627,0.07324950673654675
1760554530349344800,3.8713447265625,-0.008445756784081458,-0.0001683057716116309,0.06838659514160826
1760554530359349800,3.881349853515625,0.00319850378036499,0.01336797908451408,0.08734554436728358
1760554530369353700,3.891353759765625,-0.003556815698742866,0.00807392779700458,0.10275458255903795
1760554530379358700,3.901358642578125,0.007350947284698486,0.018922507939115166,0.07304159960690886
1760554530389362700,3.91136279296875,-0.004177577945590019,0.008622793851420283,0.06958676471160724
1760554530399367000,3.921366943359375,0.006291793620586395,-0.007442333628889173,0.11297843666523694
1760554530409372000,3.931371826171875,0.020058453166484833,-0.016376714180130512,0.13574406643118708
1760554530419375900,3.9413759765625,0.02499766313433647,-0.031265874949935824,0.17607943782042712
1760554530429380900,3.951380859375,0.012431611549854277,-0.023226370012341065,0.15060021998053416
1760554530439384600,3.961384521484375,0.02650163795650005,-0.045156708864774554,0.12538703266568482
1760554530449388800,3.971388916015625,0.00540098226070404,-0.039264993078215044,0.13462046922873705
1760554530459393800,3.981393798828125,0.0003039513826370239,-0.04119214348220266,0.06848609172701835
1760554530469396700,3.991396728515625,0.025870938837528227,-0.057001871429337186,0.06929651306075975
1760554530479401000,4.00140087890625,0.016264321580529213,-0.06377295473315753,0.06769779089353978
1760554530489405000,4.011405029296875,0.0130798463255167,-0.054659765282599256,0.08208663745839148
1760554530499410000,4.021409912109375,0.010036825367808342,-0.05791037370953708,0.08281774647822603
1760554530509413600,4.03141357421875,0.03436754902601242,-0.08397055150885134,0.06503284600060433
1760554530519418600,4.041418701171875,0.0256236860781908,-0.09263053556550294,0.09894505247455089
1760554530529422800,4.0514228515625,0.026300562426447866,-0.05633331538485363,0.08788356023412197
1760554530539426800,4.0614267578125,0.02756312970817089,-0.060432640462461856,0.04170835850918665
1760554530549431800,4.071431884765625,0.020887889727950096,-0.07635462401187978,0.05353380259312689
1760554530559435800,4.081435791015625,0.027238135537505148,-0.0486836774145253,0.08477370285158976
1760554530569440800,4.091440673828125,0.010986673438549041,-0.0337031303005293,0.0953431372587569
1760554530579445000,4.101445068359375,-0.004669160854816437,-0.023721907577477393,0.07238446913873776
1760554530589449000,4.111448974609375,0.020975568011403083,-0.03982371380636468,0.10199832083163782
1760554530599454000,4.121453857421875,0.005033317992091179,-0.02310282583106309,0.11424995443839579
1760554530609457700,4.131457763671875,-0.0031248540222644804,0.007670187568012624,0.13157441606372594
1760554530619462700,4.141462646484375,-0.0030471126109361648,0.005047309984825551,0.08342517431946471
1760554530629467000,4.151466796875,0.008403671208024025,0.0022356135649606586,0.094565814477019
1760554530639470800,4.161470947265625,0.008031915286183357,0.01607846188591793,0.09275144026512279
1760554530649475800,4.171475830078125,-0.0011719663888216018,0.01730064235832542,0.07186006167214364
1760554530659479800,4.181479736328125,-0.00243862532377243,0.0009264306625351309,0.07439805571716278
1760554530669484800,4.19148486328125,0.012910334977507591,-0.001570007529389113,0.11999069004748016
1760554530679489000,4.201489013671875,0.028870705175399778,-0.036393355765193695,0.1493543846379034
1760554530689492700,4.21149267578125,0.03257189778089523,-0.041108894778694956,0.16523566171759738
1760554530699497700,4.221497802734375,0.035980244919657706,-0.0857309487774968,0.157316376493033
1760554530709501700,4.231501708984375,0.02293430086374283,-0.07536843511927872,0.1314348431962542
1760554530719505700,4.241505615234375,0.025896657800674436,-0.08676942497976124,0.12384046081081032
1760554530729511000,4.251510986328125,0.030358313384652134,-0.09255401799688115,0.12448180918795987
1760554530739515000,4.261514892578125,0.00324643457531929,-0.030344814582262188,0.1342042896432802
1760554530749520000,4.271519775390625,0.016828969725966453,-0.056636207321565595,0.09279454875448719
1760554530759523800,4.28152392578125,0.019626491490006445,-0.051894109094701706,0.08168289722939953
1760554530769527800,4.29152783203125,0.016281272715330124,-0.037729992930125446,0.09098998355055227
1760554530779532800,4.30153271484375,0.015316811597347258,-0.030487784983217716,0.06282512508956715
1760554530789536800,4.311536865234375,-0.0004617722928524017,-0.03393629973558709,0.08717037046346814
1760554530799541800,4.321541748046875,-0.0021691607326269147,-0.03013617680026218,0.1003336572887376
1760554530809545700,4.331545654296875,0.008399579554796218,-0.0057399866904132065,0.11285621679136529
1760554530819549700,4.3415498046875,0.013584873238205909,0.0013657901941798627,0.11585338931335136
1760554530829554700,4.3515546875,0.006365443378686905,-0.00749112294036895,0.11529772819196804
1760554530839559700,4.3615595703125,0.009478606963157653,-0.030537250148132442,0.09122718983991071
1760554530849564700,4.371564697265625,0.013351064482331275,-0.0011176789183169602,0.08864676315896212
1760554530859569000,4.38156884765625,-0.01134790796637535,-0.008547719321213662,0.09895170141104608
1760554530869574000,4.391573974609375,0.018137714236974717,-0.02640468038804829,0.1109150378620252
1760554530879577900,4.401577880859375,0.00573474425971508,-0.02260083112567663,0.1334899673614651
1760554530889581800,4.411581787109375,0.016831892335414884,-0.006859126913454383,0.13336053229551761
1760554530899586800,4.4215869140625,0.013425298762321472,-0.026491938546393066,0.11271335598826408
1760554530909590800,4.4315908203125,0.01196048690676689,0.003433609444182366,0.11380862214537336
1760554530919595800,4.441595703125,0.0067477206945419305,0.0035603410963900386,0.0822835300036706
1760554530929599700,4.451599853515625,0.006621463966369629,-0.00502279659807682,0.07531504269791767
1760554530939603700,4.461603759765625,-0.00038812253475189204,0.0020790347637608645,0.06681224023066461
1760554530949608700,4.471608642578125,0.018638649496436118,0.011657485372200608,0.09331248994767666
1760554530959613000,4.481613037109375,0.0028010288953781125,-0.005299750375933945,0.09375440676258877
1760554530969618000,4.491617919921875,0.02168283949792385,-0.00041301951399073,0.10870538072222843
1760554530979622000,4.501621826171875,0.025170681613683698,-0.0019192776247859,0.12488821629807352
1760554530989625900,4.5116259765625,0.018785949012637138,-0.048513691142480816,0.11534138467060401
1760554530999630800,4.521630859375,0.016747721183300018,-0.052212070736382156,0.10512050797278061
1760554531009634800,4.531634765625,0.024587913289666176,-0.05365560234189033,0.08639330341005698
1760554531019639800,4.541639892578125,0.022703414717316628,-0.05176081983754411,0.060029740483686325
1760554531029643800,4.551643798828125,0.024099837511777876,-0.03965612042080611,0.06834883868079632
1760554531039647700,4.561647705078125,0.0106704470962286,-0.026394706983305514,0.04978212190940976
1760554531049652700,4.57165283203125,0.012652560824155806,-0.00931008199583739,0.050792888120841234
1760554531059657000,4.581656982421875,0.01598433559536934,0.013547646500356494,0.06676600820245221
1760554531069662000,4.591661865234375,0.007504092019796371,0.004860080317035317,0.07468708352530375
1760554531079666000,4.601666015625,0.00935585736632347,0.006054422934446483,0.0826302062831819
1760554531089669600,4.611669677734375,-0.0019546411991119383,-0.005864946510642767,0.08909503664942457
1760554531099674600,4.621674560546875,0.008144143489003181,-0.001686217787582427,0.12483995670955628
1760554531109678800,4.631678955078125,0.020490999364852904,-0.009046827949769794,0.11146052464926615
1760554531119683800,4.641683837890625,0.01159457620382309,-0.022575806282274423,0.0863945272527635
1760554531129687800,4.651687744140625,0.006889759513735771,-0.029950481502432375,0.11540668672546743
1760554531139691800,4.66169189453125,0.006675824502110481,-0.0297599456327036,0.10401280245920642
1760554531149696800,4.67169677734375,-0.002364975565671921,-0.009451298831123858,0.08804065049197524
1760554531159701000,4.681700927734375,0.014772037196159361,-0.026793551841471343,0.09651287515787407
1760554531169705000,4.691705078125,0.025320319217443463,-0.03646755351256579,0.06958011577511206
1760554531179710000,4.7017099609375,0.022543255719542504,-0.04487784625762142,0.09295430589346215
1760554531189713700,4.711713623046875,0.024549919366836547,-0.036824440658837554,0.07964782947152853
1760554531199718700,4.72171875,0.005303951627016067,-0.05384010119647718,0.08004192508934065
1760554531209723000,4.731722900390625,0.012543255230784416,-0.025793891545943914,0.079958521122206
1760554531219726800,4.741726806640625,0.011847089660167693,-0.02724193492978811,0.06194454286275431
1760554531229731800,4.75173193359375,0.009203297153115271,-0.03218505388777703,0.07980241724504157
1760554531239735800,4.76173583984375,0.024362287840247153,-0.022490530018461866,0.08306921875495463
1760554531249740800,4.77174072265625,0.023059388548135756,-0.06238598475363105,0.09828467060336843
1760554531259744800,4.781744873046875,0.0320808993935585,-0.07940019311970099,0.08859737105928361
1760554531269749000,4.7917490234375,0.003085691055655479,-0.059519261077744884,0.07779768982650712
1760554531279754000,4.80175390625,0.019275778356194494,-0.07861243114233948,0.060755954132694745
1760554531289758700,4.8117587890625,0.02304652906656265,-0.06261129967579618,0.0681401278335601
1760554531299763700,4.821763671875,0.019625322446227073,-0.037659649373963475,0.11832447386831045
1760554531309767400,4.831767333984375,0.0025800796210765837,-0.04062739487206563,0.0013947788266465066
1760554531319771600,4.841771728515625,0.007984569013118743,-0.018410000972868875,0.08017910507032647
1760554531329776600,4.851776611328125,-0.006806172883510589,-0.0012425108743831514,0.09469358730884268
1760554531339780600,4.861780517578125,0.0020569325298070906,-0.0037442280296236274,0.0849504659242928
1760554531349785600,4.87178564453125,-0.0013368015617132186,0.02977094195075333,0.10771052446598187
1760554531359789600,4.88178955078125,0.00590074847638607,-0.0006184058929793536,0.09592049875529482
1760554531369793500,4.89179345703125,0.014036124137043951,-0.012691550260828808,0.10955233467407524
1760554531379798500,4.901798583984375,0.022919687816500663,-0.038136116912448774,0.09737877127220854
1760554531389802500,4.911802490234375,0.019540566772222517,-0.025815984646743163,0.0801641814958304
1760554531399807500,4.921807373046875,0.016451953107118604,0.0028494528806768354,0.0748953194485046
1760554531409811500,4.9318115234375,-0.00011339724659919739,-0.03707975799362175,0.07579915468674153
1760554531419815400,4.9418154296875,-0.003960720324516296,-0.03676070950655266,0.07737343653244898
1760554531429820400,4.9518203125,0.0056575873702764505,-0.0134683524527587,0.09072391649289056
1760554531439824600,4.96182470703125,0.011838321831822395,-0.03509864891269244,0.10947972609559073
1760554531449829600,4.97182958984375,0.021606267130374907,-0.03250295159737579,0.09803279646784066
1760554531459833600,4.98183349609375,0.017155132940411568,-0.037114345249813045,0.09552748084971681
1760554531469837600,4.991837646484375,0.01315174251794815,-0.0358906212742906,0.07759347249129786
1760554531479842600,5.001842529296875,0.020222119295597075,-0.035332247606012966,0.07951795601416378
1760554531489846500,5.011846435546875,0.014130232161283493,-0.026787724888883528,0.07882964495643972
1760554531499851500,5.0218515625,0.014167057040333747,-0.01592001992119476,0.07606266446113585
1760554531509855500,5.03185546875,0.02063362270593643,-0.016095084227155894,0.0504149764528498
1760554531519859500,5.041859375,0.006750058782100677,-0.009978838969720526,0.05611088653951883
1760554531529864400,5.051864501953125,-0.0005494505763053894,-0.000996984281251207,0.0532236954643391
1760554531539868700,5.06186865234375,0.0044172319203615185,-0.013704289233637973,0.0392695505223237
1760554531549873700,5.071873779296875,0.012077391284704208,-0.011044842499727382,0.026179292400646953
1760554531559877600,5.081877685546875,0.006259060394763946,-0.02612220105170272,0.0585348988160491
1760554531569881600,5.091881591796875,0.02452361588180065,-0.06316191016272642,0.04823203379004262
1760554531579886600,5.101886474609375,0.02453238371014595,-0.048434214431792494,0.06024780368115753
1760554531589890600,5.111890625,0.013016717961430549,-0.014604452943755312,0.06975441289609298
1760554531599895600,5.1218955078125,0.011225158369541167,-0.03336513051781803,0.08069394099097699
1760554531609899500,5.1318994140625,0.010633622217178344,-0.03363247621711343,0.08769880565120838
1760554531619903500,5.141903564453125,0.018574352088570594,-0.0026620222834870216,0.08237130875182337
1760554531629908500,5.151908447265625,0.007668927192687988,-0.013321500461129471,0.10951598471906035
1760554531639912700,5.16191259765625,0.018770751443505287,-0.006500413136277347,0.10598682421222329
1760554531649917700,5.171917724609375,0.015524316868185997,0.014683189868927,0.10601049734875559
1760554531659921700,5.181921630859375,-0.0032750761479139324,0.011518149966746568,0.10430625071413814
1760554531669925400,5.19192529296875,-0.013394903624057769,0.020401448784722016,0.06759817557712085
1760554531679930400,5.201930419921875,0.0016249708533287047,0.004315397247392684,0.048759875322738656
1760554531689934600,5.2119345703125,-0.005202829340100288,0.005794950014352798,0.0292765825625509
1760554531699939600,5.221939697265625,0.004430091401934623,0.017515645949030295,0.026129608040023594
1760554531709943600,5.231943603515625,0.006434416961669922,0.012838119124667717,0.0391699808716774
1760554531719947500,5.241947509765625,0.01217968261539936,0.006319147418392822,0.0659737070472911
1760554531729952500,5.251952392578125,0.0017640870630741118,-0.008280163559364154,0.06842159338975325
1760554531739956700,5.261956787109375,0.012145195823907851,-0.031324829462403427,0.06063092124722898
1760554531749961700,5.271961669921875,0.039726445710659024,-0.04645212810332887,0.04602223051977344
1760554531759965700,5.281965576171875,0.03153787855803966,-0.04898629535660148,0.03695541922789998
1760554531769969400,5.291969482421875,0.03890460793375969,-0.06240862584370188,0.04891225287285633
1760554531779974400,5.301974365234375,0.02801438060700893,-0.04575692151393741,0.04886509839603677
1760554531789978600,5.311978515625,0.02789455361962318,-0.029786833639629185,0.06471556021235883
1760554531799982600,5.321982666015625,0.02328793660700321,-0.0209756776092574,0.07688806416830048
1760554531809987600,5.331987548828125,0.0022252748340368268,-0.008658614083472639,0.08159172094776294
1760554531819991600,5.341991455078125,-0.005969137537479401,-0.0005324994415044785,0.08176057470864616
1760554531829996500,5.35199658203125,0.017111878320574758,-0.020718597575649617,0.08528856617170386
1760554531840000500,5.36200048828125,0.020283494094014167,-0.01698829760667868,0.06234925120612606
1760554531850005500,5.372005615234375,0.01865852324068546,-0.05451733373776078,0.060133392654405905
1760554531860009700,5.382009765625,0.024657471394538878,-0.0559234833417926,0.050482735326280816
1760554531870013400,5.392013427734375,0.025266543203592298,-0.03733498399686068,0.06715421293559484
1760554531880018400,5.402018310546875,0.031257308050990106,-0.04858611705787479,0.08558735732203349
1760554531890022400,5.4120224609375,0.0323117855399847,-0.057130466245068234,0.09116783346864395
1760554531900026600,5.422026611328125,0.026633155381679534,-0.018178128445753828,0.11272986873164773
1760554531910031600,5.432031494140625,0.014372808745503425,-0.029308219809830185,0.10887156760198995
1760554531920035600,5.44203564453125,0.01393733993768692,-0.011108162660058587,0.11880324296173639
1760554531930040600,5.45204052734375,0.00872106659412384,0.01628541003433056,0.10807563145132734
1760554531940044500,5.46204443359375,0.012036474752426148,0.0007802636574953794,0.1121444700591266
1760554531950048800,5.472048828125,0.01745090101659298,-0.019961376867024226,0.11227447138065472
1760554531960053800,5.4820537109375,0.005820084455609322,0.009016332346806303,0.10569112006812356
1760554531970057500,5.492057373046875,0.006012976679205894,0.017656342194508762,0.14605278580924494
1760554531980062500,5.5020625,0.010392214676737784,-0.0064343164969701315,0.12628352484768257
1760554531990066400,5.51206640625,0.03167874833345413,-0.02612119640470482,0.08093713862970471
1760554532000070700,5.522070556640625,0.024526538491249084,-0.055946215763408684,0.05590369636251125
1760554532010075600,5.53207568359375,0.017511106771230696,-0.055896714065875854,0.05539915350701194
1760554532020079600,5.54207958984375,0.03113631201982498,-0.07856387015972285,0.050656662554503414
1760554532030084600,5.552084716796875,0.021854688933491705,-0.0841343272358179,0.03908491467041895
1760554532040088600,5.562088623046875,0.01824643530845642,-0.08367795263729058,0.05825196282197721
1760554532050092500,5.572092529296875,0.029741058269143104,-0.07830825143083929,0.028194819774408825
1760554532060097500,5.58209765625,0.023271569994091985,-0.03510630249618552,0.015097001684072893
1760554532070101500,5.5921015625,0.00034136078357696533,-0.025691116158058865,0.024336842871736732
1760554532080106500,5.6021064453125,0.008839140015840529,-0.005967301773419603,0.03338584222899517
1760554532090110500,5.6121103515625,0.016144494593143464,0.01587477427367121,0.025393786312453447
1760554532100114700,5.62211474609375,-0.009163549664616584,0.023122270317049696,0.04150452476646751
1760554532110119700,5.63211962890625,-0.004237199178338051,0.016094801099365577,0.048794010487780905
1760554532120123600,5.64212353515625,-0.006191255855560302,0.01854523559194058,0.08194605081076733
1760554532130128600,5.652128662109375,-0.008140051835775375,-0.001816913228854537,0.07423748572743498
1760554532140132600,5.662132568359375,0.002482464465498924,-0.012314972033398226,0.05206199017462786
1760554532150136600,5.672136474609375,0.01894260087907314,-0.0011020520909223704,0.06025247528969776
1760554532160141600,5.6821416015625,0.014897709402441978,-0.02336997060095891,0.05900079016159288
1760554532170145500,5.6921455078125,0.017432780838012696,-0.04256479267543182,0.05408609358048998
1760554532180150500,5.702150634765625,0.013534019833803175,-0.03920675095180049,0.07306505354773253
1760554532190154500,5.712154541015625,0.019659224715828896,-0.01735926807723008,0.1036460515060462
1760554532200158700,5.72215869140625,0.012464929297566414,-0.018826892944378778,0.12542533711576834
1760554532210163700,5.732163818359375,0.0010837035834789276,-0.0068509070743806655,0.07097118654102087
1760554532220167700,5.742167724609375,0.00960427916944027,-0.013013000767538323,0.05663543100343085
1760554532230172700,5.752172607421875,-0.017488894939422607,-0.011662033683154731,0.0401402780754026
1760554532240176600,5.7621767578125,0.007642039185762405,-0.02262414806918241,0.02222767783119343
1760554532250180600,5.7721806640625,0.007190203765034675,-0.004787490004859864,0.007250354720745235
1760554532260185600,5.782185546875,-0.002236380749940872,0.009558531198417767,-0.038025044053676536
1760554532270189600,5.792189453125,0.0006119944185018539,-0.014575245115580036,-0.021806854036659933
1760554532280193500,5.802193603515625,0.01857493661046028,-0.024087927878275513,-0.00954944827624131
1760554532290197500,5.812197509765625,-0.0002712181568145752,-0.0204381457996089,0.03770852316712262
1760554532300201700,5.82220166015625,0.003329436683654785,0.0021312672744970766,0.07007092236620374
1760554532310206700,5.832206787109375,0.03386369115710258,-0.025623302485700696,0.07582121125492267
1760554532320210700,5.842210693359375,0.012921440893411636,-0.032149388919351624,0.05435154415022116
1760554532330214700,5.852214599609375,0.02983575081527233,-0.03933203043243848,0.12231593639096244
1760554532340219600,5.8622197265625,0.028787703067064283,-0.03254390466227196,0.13907207834273577
1760554532350224000,5.872223876953125,0.012921440893411636,-0.03818195621501654,0.14204667370673268
1760554532360228900,5.882228759765625,0.01336041683256626,-0.02537572093280032,0.12100063427500427
1760554532370232600,5.892232666015625,0.021423896300792694,-0.041856854468630626,0.11245265922546387
1760554532380236500,5.902236572265625,0.01750701511800289,-0.05972092112968676,0.08807065290459432
1760554532390241500,5.912241455078125,0.018668460112810134,-0.08161064484394155,0.05258885902636684
1760554532400245800,5.922245849609375,0.033439912787079806,-0.07595350499823689,0.03276292227439116
1760554532410250800,5.932250732421875,0.03204641260206699,-0.07150660859197377,0.037460683602606876
1760554532420254700,5.942254638671875,0.014489713123440742,-0.05110747049534693,0.046371372751006855
1760554532430258700,5.9522587890625,0.02640110019147396,-0.05537139328382909,0.03539740353040397
1760554532440263700,5.962263671875,0.02169452993571758,-0.0741818374169059,0.013349443347402847
1760554532450268000,5.972267822265625,0.03090191874206066,-0.04983589792326092,0.07639003325197845
1760554532460273000,5.98227294921875,0.015268296280503272,-0.029731906848307697,0.04559528751170728
1760554532470276600,5.992276611328125,0.007720365118980407,-0.011239186894893645,0.015173494136519729
1760554532480280600,6.002280517578125,0.013793547552824019,-0.010894026719033717,0.021748858505417593
1760554532490285600,6.01228564453125,0.014937456890940665,0.0019522300463169812,0.06661343428951222
1760554532500289800,6.022289794921875,-0.012186112356185913,0.02832795833451673,0.08125663464134558
1760554532510294800,6.032294677734375,-0.0029372224956750867,0.028706417991779743,0.0826598707690835
1760554532520298800,6.042298828125,-0.010881459498405455,0.04911808677641675,0.11120418440117501
1760554532530302700,6.052302734375,0.00033960721790790555,0.044333738576713945,0.0968300330819562
1760554532540307700,6.0623076171875,0.0036392332851886747,0.02324906590133905,0.10322087576338089
1760554532550311700,6.072311767578125,0.01113748008608818,0.018501451249141244,0.06982608532623853
1760554532560317000,6.08231689453125,0.019978958189487455,0.009559855505824088,0.06739855221863836
1760554532570320600,6.092320556640625,0.010706687453389168,-0.06052044661007821,0.0627008959216997
1760554532580324600,6.10232470703125,0.015344284126162528,-0.05179835710264742,0.045754008037643505
1760554532590329600,6.11232958984375,0.005907762739062309,-0.04141301055811345,0.05513324627955444
1760554532600333600,6.12233349609375,0.014125555986166,-0.0394515377594158,0.03093917287937365
1760554532610338600,6.132338623046875,0.015614917761087416,-0.018746037127356976,0.016790494029235558
1760554532620342800,6.1423427734375,0.01127425820827484,0.0025510361896827816,0.017294678408419712
1760554532630346800,6.1523466796875,0.01008475616276264,0.0042454190174117685,0.012191263455338776
1760554532640351700,6.162351806640625,0.029252982491254804,0.016299593823309987,-0.027026150454371234
1760554532650355500,6.17235546875,0.009672083708643912,0.0038500995568931102,0.0007949292203760706
1760554532660360400,6.1823603515625,0.008050619986653327,0.017026209331117568,0.03659904810485896
1760554532670364700,6.19236474609375,0.0008960720568895339,-0.0009786175074987112,0.02415088042913703
1760554532680368600,6.20236865234375,0.007519289588928222,0.012984057800844311,0.02575857820396777
1760554532690373600,6.21237353515625,-0.006209960556030273,0.019361922269687054,0.03924066692113411
1760554532700377600,6.222377685546875,0.008192074283957481,0.005495419078506529,0.024402930377889424
1760554532710382600,6.232382568359375,-0.00045358898639678955,-0.019492964770831168,0.06142058748730923
1760554532720386800,6.24238671875,0.013045359534025192,-0.007286412414815277,0.05793694205605424
1760554532730390800,6.252390869140625,-0.002782324194908142,0.0010461663183756172,0.045655580031313
1760554532740395800,6.262395751953125,0.007125321835279464,-0.020406481152866033,0.06594022490279748
1760554532750399500,6.2723994140625,0.02646422855556011,0.0058110243663191796,0.0860388365497347
1760554532760403700,6.28240380859375,0.017078560572862625,0.014918806989397853,0.098596787026152
1760554532770408700,6.29240869140625,0.009040215545892715,0.02067019185665995,0.11356347914473153
1760554532780412700,6.30241259765625,0.01940495769381523,-0.005904091210942715,0.10603623457821086
1760554532790417700,6.312417724609375,0.03290975143313408,-0.025018742454983294,0.09437519640889949
1760554532800421600,6.322421630859375,0.011698036578297615,0.0030405367396771905,0.08947791675347834
1760554532810425900,6.33242578125,0.01681786381006241,-0.020968599414499474,0.0978615680867806
1760554532820430800,6.342430908203125,0.008467384093999861,-0.0158634034962859,0.09354776914143002
1760554532830434800,6.352434814453125,0.0077495912134647365,-0.00012025624564848839,0.09773858102792873
1760554532840439800,6.362439697265625,0.013766659545898436,0.011737153879133985,0.10420482703312299
1760554532850443500,6.372443603515625,0.015447744500637054,0.02128629619469866,0.09062728771800174
1760554532860447700,6.38244775390625,0.007099018350243568,0.0283447907383088,0.034690383205632676
1760554532870452700,6.39245263671875,0.01939794343113899,-0.011902847568551077,0.04962166608411353
1760554532880456700,6.402456787109375,0.011035773277282715,-0.03176052659908309,0.0596963986097835
1760554532890461700,6.412461669921875,0.03498831127285957,-0.057907944290433076,0.051663414744520554
1760554532900465700,6.422465576171875,0.03453881393969059,-0.05392520393035374,0.03685515545750968
1760554532910470000,6.432469970703125,0.033784196180105204,-0.06355297357323579,0.04717446016166359
1760554532920475000,6.442474853515625,0.02045242092013359,-0.04659727219506166,0.05363199313743971
1760554532930478800,6.452478759765625,0.02566635617613792,-0.037060788431670516,0.02181024700356647
1760554532940483800,6.46248388671875,0.01127425820827484,-0.03647087798081338,-0.013650969877513125
1760554532950487600,6.472487548828125,0.019321955585479736,-0.030055028722295537,-0.012371533659379928
1760554532960491800,6.48249169921875,0.006115268009901046,-0.04194870660370215,0.0005924129351973533
1760554532970496800,6.492496826171875,0.030011107382178305,-0.07517095805210992,0.07442570177591405
1760554532980500700,6.502500732421875,0.032356793725490565,-0.09846299544549547,0.0726400787344668
1760554532990505700,6.512505615234375,0.04114098868370056,-0.10050515966443345,0.08625804139152168
1760554533000509700,6.522509765625,0.02658756267428398,-0.06374736363417469,0.08132668593656271
1760554533010513700,6.532513671875,0.018474983367323873,-0.03762059600520879,0.05713789149969816
1760554533020518700,6.5425185546875,0.0006458966881036758,-0.016382285404391586,0.06054117887085303
1760554533030522600,6.552522705078125,-0.0028086276799440383,0.012675174514763056,0.05107099267616868
1760554533040527600,6.562527587890625,0.012895137408375739,0.04096764141079038,0.01335711063062772
1760554533050531600,6.572531494140625,-0.010154898789525031,0.03754865414700471,0.01017240704675205
1760554533060535600,6.58253564453125,-0.01764203967452049,0.016622167708026245,0.032860021406738084
1760554533070540500,6.59254052734375,-0.005378185907006263,0.03304068433642387,0.025257391782756895
1760554533080544800,6.602544677734375,0.00807750799357891,0.009838690713513641,0.009909079935448244
1760554533090549800,6.6125498046875,0.014494973820447921,0.009765068354876711,0.007528431876609102
1760554533100553700,6.6225537109375,0.025387539234757422,0.007902425421308725,0.01947930157165974
1760554533110557700,6.6325576171875,0.011579963156580924,-0.026107688469160346,0.012310131461499257
1760554533120562700,6.642562744140625,0.019458733707666397,-0.028838519938848912,0.02558610314731486
1760554533130566700,6.652566650390625,0.012521627920866012,-0.031975110064679756,0.07410396814141422
1760554533140571600,6.662571533203125,0.02443769116401672,-0.042450007189344614,0.08897085314732976
1760554533150575600,6.67257568359375,0.03216156341433525,-0.06514639851083047,0.09855092945727519
1760554533160579600,6.68257958984375,0.024627076256275176,-0.05040287502310239,0.0961012621496804
1760554533170584600,6.69258447265625,0.006322773280739784,-0.03850442963503301,0.10760541099053807
1760554533180588800,6.7025888671875,0.00658522360920906,-0.0015980554469395428,0.10700431242538616
1760554533190593800,6.71259375,0.009401450073719024,0.012909147667419164,0.1060908051765058
1760554533200597800,6.72259765625,0.002350362518429756,0.0017776680638547987,0.09584143303656019
1760554533210601700,6.732601806640625,-0.006039864686131477,0.023899720962950958,0.09673959658583625
1760554533220606700,6.742606689453125,-0.0054500820994377135,0.030371985716978085,0.08590576648828573
1760554533230610700,6.752610595703125,-0.006195347508788108,0.02981726531051099,0.08939279575329273
1760554533240615700,6.76261572265625,0.0018938509225845336,0.0293192800599616,0.07316392907863482
1760554533250619600,6.77261962890625,0.00011339724659919739,0.0444053242418915,0.06419909859020262
1760554533260623600,6.78262353515625,0.002672434079647064,0.024183378476230425,0.05115222295252606
1760554533270628600,6.792628662109375,0.016893851655721662,-0.005953191049676388,0.03102991076959297
1760554533280632800,6.8026328125,0.037083822247385975,-0.030512325769430023,0.014408300183992832
1760554533290637000,6.812636962890625,0.043641573327779765,-0.058641053471108893,-0.005720715734362602
1760554533300642000,6.82264208984375,0.04001227691471577,-0.06632011846532114,-0.0057435303543694315
1760554533310646000,6.83264599609375,0.011389409020543098,-0.04392041766862385,0.04217561069475487
1760554533320651000,6.842651123046875,0.01792670183479786,-0.04472989828744903,0.03872762566534802
1760554533330655000,6.852655029296875,0.010700257712602615,-0.03622948870668188,0.04489540931377559
1760554533340659200,6.8626591796875,0.025022797575592993,-0.027765456480393184,0.07500122750839218
1760554533350664200,6.872664306640625,0.008976502659916877,-0.03529067348660901,0.08327422154145314
1760554533360668000,6.88266796875,0.015984920117259025,-0.0526424249776639,0.10202056919606402
1760554533370673000,6.8926728515625,0.032139936104416844,-0.019720508182700724,0.11861646081851794
1760554533380676900,6.9026767578125,0.022121230915188788,0.0046682566725183275,0.12618183630518615
1760554533390681000,6.91268115234375,0.020046178206801414,-0.003748557144869119,0.10295732032321393
1760554533400686000,6.92268603515625,0.008700023806095122,0.008944856279483064,0.0841211572269909
1760554533410690000,6.93268994140625,0.007523965764045715,-0.010806686362298205,0.054810818525310605
1760554533420695000,6.942695068359375,0.018911621218919754,-0.02038335600560531,0.006529164306726306
1760554533430699000,6.952698974609375,0.015923545318841933,-0.018153359330678357,0.00243146493062377
1760554533440703000,6.962702880859375,0.0033434652090072628,-0.020632481061620637,0.012439922720473258
1760554533450708000,6.9727080078125,0.013953122028708458,-0.008963716243579983,0.02327686722371727
1760554533460712000,6.9827119140625,0.026207038924098012,-0.006697031686920672,0.07258943539261818
1760554533470717000,6.992717041015625,0.015120996764302253,-0.012343010817794129,0.0936824375049211
1760554533480721000,7.002720947265625,0.004794833061099052,0.014190684511093421,0.0884214117041789
1760554533490725000,7.01272509765625,0.011684592574834823,0.01011310547441244,0.09887717487011104
1760554533500730000,7.022730224609375,0.015582184535264968,-0.006180816659936681,0.07662711167717352
1760554533510734000,7.032734130859375,0.004969605106115341,-0.0011584310538135468,0.06087395448917523
1760554533520739000,7.042739013671875,0.014422493106126784,0.01853634903258644,0.08752672788677737
1760554533530743000,7.052742919921875,0.011909048980474471,0.013166739157680421,0.09040940718362107
1760554533540747000,7.0627470703125,-0.0042144028246402735,0.009001554902782663,0.09236218521920964
1760554533550752000,7.072751953125,0.010347206491231917,-0.00760028240326792,0.10393860471183433
1760554533560756000,7.082755859375,0.02192716964781284,-0.012331283847382291,0.1267317618055269
1760554533570761000,7.092760986328125,0.030969723281264305,-0.009581373217888175,0.13112426114343106
1760554533580765000,7.102764892578125,0.018909283131361008,-0.05127293585590086,0.10830196928679943
1760554533590769200,7.11276904296875,0.016569442006945607,-0.06194631469473243,0.06506119531225413
1760554533600774100,7.122774169921875,0.01870879212319851,-0.03482836233763955,0.0681728793256916
1760554533610778000,7.132778076171875,0.018583704438805578,-0.021926265465514735,-0.009958335037808864
1760554533620783000,7.142783203125,0.014557517662644386,-0.05427467495515011,-0.025877733904495832
1760554533630787000,7.152787109375,0.012017185530066489,-0.02543670300557278,0.0012433511245995758
1760554533640791000,7.162791015625,0.010522563058137892,-0.027912984325457364,0.02769733228078112
1760554533650796000,7.172796142578125,0.008130114963650703,-0.03869375079520978,0.05279356041876599
1760554533660800000,7.182800048828125,0.022646131572127342,-0.04566442092489451,0.04603579325424507
1760554533670804000,7.192803955078125,0.023102058646082876,-0.013618099654372781,0.039379002246167506
1760554533680809000,7.20280908203125,0.013385551273822783,-0.007205931057129055,0.021576328649837523
1760554533690813200,7.212813232421875,0.009061842855811119,-0.006650196870509535,0.044539234553556885
1760554533700818200,7.222818115234375,0.00893324804008007,0.009296875454392284,0.06226120759649202
1760554533710822100,7.232822265625,0.0035772739648818968,0.010578558428538963,0.0826001947374083
1760554533720825900,7.242825927734375,0.029198037433624265,-0.022273946392023933,0.07798312939601018
1760554533730830800,7.252830810546875,0.021447861698269843,-0.028356700371811164,0.080035111756064
1760554533740835000,7.2628349609375,0.037333997616171836,-0.06566549048149027,0.06472659306302667
1760554533750840000,7.272840087890625,0.0249310276389122,-0.0590646674443502,0.08283464281409979
1760554533760844000,7.282843994140625,0.02239770976901054,-0.021589443859737364,0.051337123665912074
1760554533770848000,7.292847900390625,0.004446458014845848,-0.015160177997220307,0.049868996475264424
1760554533780853000,7.30285302734375,0.020009937849640846,-0.016315805172594264,0.07440123405493795
1760554533790857000,7.31285693359375,0.002954173630475998,0.03216627612207085,0.05652346766209229
1760554533800862000,7.322862060546875,-0.005721884778141975,0.028816399438586084,0.032445102196605874
1760554533810866200,7.3328662109375,0.01358662680387497,0.009566321779228747,0.04798186755441129
1760554533820870000,7.342869873046875,-0.011539046624302864,0.023662094548484308,0.07419873375277966
1760554533830875000,7.352875,-0.01944412066042423,0.04128844346352853,0.08364719217284582
1760554533840878800,7.36287890625,-0.006236848562955856,0.05540706738540902,0.08124416788541712
1760554533850883800,7.3728837890625,0.014465747725963592,0.049694955082610244,0.12571634681844152
1760554533860888000,7.38288818359375,0.013619360029697417,0.00988246592315845,0.10565699860281311
1760554533870892000,7.39289208984375,0.029526538735628126,-0.04315177138368599,0.027070222491538152
1760554533880897000,7.40289697265625,0.048266310518980025,-0.10752296600462868,0.06802361618126743
1760554533890901000,7.41290087890625,0.056366030344367025,-0.16437334579983726,0.08632023817384615
1760554533900906000,7.422906005859375,0.07657002946138382,-0.1915746381919831,0.0692868227838073
1760554533910910200,7.43291015625,0.054262920585274696,-0.14584890640075318,0.05962737022787332
1760554533920914000,7.442913818359375,0.0331353768825531,-0.09189603814533912,0.025257044722884894
1760554533930919000,7.4529189453125,0.033247605085372924,-0.055943439284432676,0.014847257856838405
1760554533940923000,7.4629228515625,0.020490999364852904,-0.028738795024575665,0.005310317435720935
1760554533950928000,7.472927978515625,-0.00856675281524658,0.022134556187642738,0.0738122186532244
1760554533960932000,7.48293212890625,0.007425766086578369,0.04517329467339441,0.0823879858919885
1760554533970936000,7.49293603515625,-0.030738837134838104,0.07936508527370169,0.025712131546624002
1760554533980941000,7.502941162109375,-0.0395575188845396,0.11079567666552029,0.040758711367845535
1760554533990945000,7.512945068359375,-0.01424187584221363,0.12603284715539775,0.023919028451619667
1760554534000950000,7.522949951171875,-0.02856616927087307,0.12978039052011445,0.01853031201744452
1760554534010954200,7.532954345703125,-0.028359248521924018,0.11100806817403062,0.03451165193812922
1760554534020958000,7.5429580078125,-0.007039397117495536,0.07300795306563376,0.10759688975736498
1760554534030963000,7.552962890625,0.009050736939907074,0.0209696131946519,0.12547438215557485
1760554534040967000,7.562966796875,0.013020225092768668,-0.009991040864167734,0.1254800081787631
1760554534050972000,7.572971923828125,0.015642974811792373,-0.03986701409197412,0.1338259030512534
1760554534060976000,7.58297607421875,0.026043957316875456,-0.03321054274430498,0.07302790900827386
1760554534070980000,7.59297998046875,0.02806114235818386,-0.031513155108736826,0.06371210965770296
1760554534080985000,7.602985107421875,0.02049216840863228,-0.04746036443095654,0.07211864867624826
1760554534090989000,7.612989013671875,0.02039747586250305,-0.05726081462646834,0.05272298853374086
1760554534100994000,7.622994140625,0.022988076877593994,-0.05291791745079681,0.04595568635589443
1760554534110998000,7.632998046875,0.019583236870169638,-0.035481766478763895,0.01129220029034186
1760554534121002000,7.643001953125,0.02515022334754467,-0.05326682222001254,0.031249745799042283
1760554534131007000,7.653007080078125,0.042081484404206275,-0.06339456814113073,0.09507869590260087
1760554534141011000,7.663010986328125,0.027580665364861486,-0.08027782533760182,0.07016039074794389
1760554534151015200,7.67301513671875,0.017711597779393195,-0.06757623773994856,0.027085931517323476
1760554534161020200,7.683020263671875,0.015317396119236945,-0.06120247405748814,0.04182121689966879
1760554534171024100,7.693024169921875,0.038055882149934765,-0.06451548019615001,0.058884963495889675
1760554534181029000,7.703029052734375,0.03415361401438713,-0.06758559009018354,0.052964953196607524
1760554534191033000,7.713033203125,0.027998598515987395,-0.05027828052905388,0.053227102130977436
1760554534201037000,7.723037109375,0.013906944799423218,-0.053632038803212344,0.04483903491746168
1760554534211042000,7.7330419921875,0.008345803540945053,-0.05872698732204735,0.08097984526026994
1760554534221046000,7.7430458984375,0.0105658176779747,-0.019453810937376692,0.1352041508682072
1760554534231051000,7.753051025390625,0.023410686203837395,-0.021104783881641925,0.11660717595587484
1760554534241055000,7.763054931640625,0.018894670084118843,-0.031177867872919887,0.10291412050230428
1760554534251059000,7.773058837890625,0.01976151604652405,-0.026702594755543395,0.07091993584439624
1760554534261064000,7.78306396484375,0.018232406783103942,-0.003880439896229654,0.0169856535584433
1760554534271068200,7.793068115234375,0.0231359609156847,-0.010607857588259502,-0.0037574459875118916
1760554534281073200,7.8030732421875,0.019660393759608267,0.0027866167775355277,-0.008573572998389135
1760554534291077000,7.8130771484375,0.0075087681949138636,0.02699306560209952,0.006118859622918534
1760554534301080600,7.82308056640625,0.004186345773935318,0.00918767945887521,0.016649042015220036
1760554534311085800,7.8330859375,-0.0012257424026727675,0.005498688747826963,0.04680754937829915
1760554534321089800,7.84308984375,0.007578326299786567,0.019978757260087875,0.04871558865644037
1760554534331094800,7.8530947265625,-0.0009755670338869094,0.002266739355586469,0.01368054988173535
1760554534341098500,7.863098388671875,0.02728431276679039,-0.0031022129321936517,0.023520425622048785
1760554534351102500,7.8731025390625,0.003472644546627998,0.01557278651925735,0.033935164941137186
1760554534361107700,7.883107666015625,-0.02003331872522831,0.009761707354011013,0.04832996403945144
1760554534371111700,7.893111572265625,-0.006869885769486427,0.0413758751518093,0.03276446121092885
1760554534381116700,7.90311669921875,-0.017492402070760724,0.045519340765243395,0.03447515585264191
1760554534391120600,7.91312060546875,0.0064507835745811455,0.008242525829561054,0.038037885268940586
1760554534401124600,7.92312451171875,0.021414543950557707,-0.01906095742858015,0.052710256916331126
1760554534411129600,7.933129638671875,0.020067805516719817,-0.00544367975811474,0.06985181798911654
1760554534421133800,7.9431337890625,0.021266075390577316,-0.015835529108671472,0.09991360524576157
1760554534431138800,7.953138916015625,0.0003232406049966812,0.01503696260950528,0.10024464556472375
1760554534441142500,7.963142578125,-0.0005675707548856735,0.007669877040758728,0.10417337244893424
1760554534451146500,7.973146484375,0.006622633010149002,-0.007565293288277462,0.09129804485272616
1760554534461151500,7.9831513671875,0.009924597164988518,-0.00976644746121019,0.06041818267884664
1760554534471154700,7.99315478515625,0.016965163326263428,-0.011009899050509557,0.04990418651965446
1760554534481158700,8.00315869140625,0.023853753796219825,-0.031686401916947216,0.04559352024630643
1760554534491163600,8.01316357421875,0.016224574092030524,-0.026141700336616485,0.038708295343793
1760554534501167600,8.023167724609374,0.012781155639886856,-0.0323447105620522,0.06834670152263715
1760554534511172600,8.033172607421875,0.029834581771492955,-0.04634053008817136,0.05528518543825484
1760554534521176600,8.043176513671876,0.014267010283470154,-0.016029298115102574,0.0688465408035554
1760554534531180500,8.0531806640625,0.015608488020300864,-0.010160890138894318,0.08191451402818783
1760554534541185500,8.063185546875,0.011716156756877899,-0.0024523524550255386,0.04489538191431202
1760554534551189800,8.073189697265626,0.0045353053420782085,-0.006390148561680689,0.01987133994641481
1760554534561194800,8.08319482421875,-0.008476151922345162,0.01249170770663768,0.02280228796493029
1760554534571198700,8.09319873046875,0.009637596917152404,-0.008187480307230726,0.009515150997706223
1760554534581202700,8.10320263671875,0.022065701335668562,-0.001254274377413094,0.025114734192343894
1760554534591207700,8.113207763671875,0.040030981615185736,-0.025372524328716096,0.03388671355637489
1760554534601211600,8.123211669921876,0.0024807108998298644,-0.017992926338268444,0.03173157221594592
1760554534611216600,8.133216552734375,0.01670095943212509,-0.024368041727598756,0.044385222168779
1760554534621220600,8.143220703125,0.029870822128653524,-0.0336160730715841,0.0441065787573345
1760554534631224600,8.153224609375,0.010865677407383919,-0.03206340026948601,0.044294329014932736
1760554534641229600,8.1632294921875,0.020434885263442993,-0.051043748476216566,0.07320580002556089
1760554534651233800,8.17323388671875,0.02715922508239746,-0.048000079064536835,0.11689480639137327
1760554534661238800,8.18323876953125,0.024296821388602254,-0.05687727693528868,0.10115366843473166
1760554534671242800,8.19324267578125,0.019183423897624015,-0.056101104931021106,0.09713133584978058
1760554534681246700,8.203246826171876,0.04249474138021469,-0.04898843251476064,0.1146102208518423
1760554534691251700,8.213251708984375,0.03213525992929935,-0.015242668648902325,0.1125365107171703
1760554534701255700,8.223255615234375,0.0023269816428422925,0.012756359125347807,0.06753659984930419
1760554534711259600,8.233259765625,0.0022989245921373365,0.002006672780448571,0.05603663855979685
1760554534721264600,8.2432646484375,0.002723287484049797,0.001156905817007646,0.02991270905860001
1760554534731268600,8.2532685546875,0.011230419066548347,0.005175749536929652,-0.0015957270633574806
1760554534741273600,8.263273681640625,0.0032820904105901718,0.0028902050161734223,-0.02587839149162173
1760554534751277600,8.273277587890625,-0.00017126491367816925,0.009208758779522031,0.040535775632434524
1760554534761282600,8.283282470703124,0.014482698860764502,-0.0008401771511882543,0.05872892355080694
1760554534771286800,8.293286865234375,0.01447276198863983,-0.02147538902601227,0.036793100239080376
1760554534781290800,8.303290771484376,0.014168810606002807,0.007570453520584851,0.04721529906212817
1760554534791295700,8.313295654296875,0.016407529443502426,0.00863444775659591,0.05823488382301293
1760554534801299500,8.323299560546875,0.014458148941397667,0.011410616205353288,0.029767441669281105
1760554534811303700,8.3333037109375,-0.006793313401937485,-0.012605963469762354,0.05166242836383171
1760554534821308700,8.34330859375,0.015048516049981116,-0.021299082611035556,0.07613514974203425
1760554534831314700,8.353314697265626,0.017886369824409484,-0.01815813597049564,0.07577789726958144
1760554534841318700,8.363318603515625,-0.003968319109082222,-0.006821553115732968,0.07158018985141534
1760554534851323600,8.37332373046875,0.002910334488749504,-0.014416337359976023,0.07498559154784307
1760554534861327600,8.38332763671875,0.00485679238140583,0.007406148070655763,0.052808009069226676
1760554534871332600,8.39333251953125,-0.009801847568154335,0.031923772603087125,0.05470246278000995
1760554534881336600,8.403336669921876,0.0023269816428422925,0.006905779066774993,0.030388902602449523
1760554534891340800,8.4133408203125,0.009976035091280937,0.004250003860983997,0.048507256835117
1760554534901345800,8.423345703125,-0.004061258089542389,0.03319727227077819,0.04519225966876838
1760554534911349500,8.433349609375,0.017066285613179206,0.02003717291643843,0.05933990418915636
1760554534921353500,8.443353515625,-0.006543138033151626,0.004297359267203137,0.06105928446082398
1760554534931358500,8.4533583984375,0.002927285623550415,0.030269603054737672,0.02865142270179931
1760554534941362700,8.46336279296875,-0.017961188626289367,0.07779345204280688,-0.004609790783817879
1760554534951367700,8.47336767578125,-0.015190554869174956,0.1165520939009264,-0.042592913658218455
1760554534961371600,8.48337158203125,-0.003288520151376724,0.07987902614520863,-0.04910916825102176
1760554534971376600,8.493376708984375,0.021014146456122398,-0.01856997730755247,0.062291159776761196
1760554534981380600,8.503380615234375,0.09075637572407722,-0.22375472364369778,0.09941508113909513
1760554534991384800,8.513384765625,0.1281137542158365,-0.3825127685787156,0.1529958464127965
1760554535001389800,8.523389892578125,0.12022504679262637,-0.38414676298871636,0.1712019314445555
1760554535011393500,8.5333935546875,0.0835550660431385,-0.2981516833823174,0.14494762844578363
1760554535021397500,8.5433974609375,0.061063248249888416,-0.1927304936962202,0.08505151514597237
1760554535031402500,8.553402587890625,0.03931143516898155,-0.08690607523778453,0.03299956687474623
1760554535041406700,8.56340673828125,-0.001294131463766098,0.028095409953966734,-0.012418194945855065
1760554535051411700,8.57341162109375,-0.018093290573358536,0.07345947795910761,0.02120308402380906
1760554535061415700,8.583415771484376,-0.0012187281399965286,0.06177864824393764,0.032067747651040555
1760554535071419600,8.593419677734374,-0.005566401955485344,0.07002999670077115,0.046451662312448024
1760554535081424600,8.603424560546875,-0.05776303766071796,0.15205591694787143,0.049012557742442
1760554535091428900,8.613428955078126,-0.043615854364633555,0.1881635145742446,0.0796873668974731
1760554535101433900,8.623433837890625,-0.051852352312207216,0.23098438263628632,0.05702101908780168
1760554535111437600,8.6334375,-0.061225745335221286,0.21799382202941922,-0.005003132916381582
1760554535121441500,8.643441650390624,-0.04225859453678131,0.22561339365504682,-0.03665391553067602
1760554535131446500,8.653446533203125,-0.0516746576577425,0.23077969037704169,-0.020362258418649432
1760554535141450800,8.66345068359375,-0.038919805502891536,0.173033731715288,-0.03246714963163249
1760554535151455700,8.673455810546875,-0.011658289089798927,0.060442084144242104,-0.009644341751770116
1760554535161459700,8.683459716796875,0.030079496443271635,-0.053752651241887356,0.09074349797619506
1760554535171463700,8.693463623046876,0.048133039528131485,-0.14036162496292962,0.1302455786127597
1760554535181468700,8.70346875,0.0640396337121725,-0.20588378885043784,0.10924677585624158
1760554535191473000,8.713472900390625,0.08184650855958461,-0.24751696323156355,0.07397405815143138
1760554535201478000,8.723477783203125,0.0647545039832592,-0.19716323371296748,0.031641622060304506
1760554535211481600,8.733481689453125,0.06395137090682983,-0.15759259961852803,0.001257224386325106
1760554535221485600,8.743485595703126,0.05176292046308517,-0.12345876801684498,-0.026936029052082446
1760554535231490600,8.753490478515625,0.04166179768741131,-0.07320926605770364,-0.021852168182842434
1760554535241494500,8.76349462890625,0.038134792605042454,-0.061988455069717015,0.016470237682480363
1760554535251499800,8.773499755859374,0.030257775619626042,-0.06375164708364754,0.011469881245074793
1760554535261503700,8.783503662109375,0.02327624616920948,-0.029045623350888488,0.06960865688300691
1760554535271507700,8.7935078125,0.005818915411829948,-0.0017228234709240496,0.08277180671095848
1760554535281512700,8.8035126953125,-0.0122258598446846,0.0497391960831359,0.10406329967058263
1760554535291516700,8.8135166015625,-0.01663432393670082,0.07711487692780793,0.06497103281076998
1760554535301521700,8.823521728515624,-0.012341595178842544,0.09247766482504084,0.048714456145279104
1760554535311526000,8.83352587890625,-0.015506196689605713,0.09490286441165953,0.030645569360814987
1760554535321529900,8.84352978515625,-0.024036709147691727,0.08654542523184791,0.018044884854368864
1760554535331534800,8.853534912109374,-0.012351532050967215,0.06475348106995224,0.039325226232316345
1760554535341538600,8.86353857421875,0.013553309056162833,0.016435129836481065,0.020132915775338187
1760554535351543600,8.87354345703125,-0.0105178868830204,-0.006884096957929432,0.023002251533418894
1760554535361547800,8.8835478515625,0.002521627432107925,0.00019944982854649423,0.03717260564253665
1760554535371551700,8.8935517578125,0.003141805157065391,-0.006566573707666248,0.059254235199699176
1760554535381556700,8.903556640625,-0.0031131635844707487,0.005091770181059837,0.052061994741205125
1760554535391560700,8.913560791015625,-0.006962824749946594,0.023758421929273753,0.04251302595557645
1760554535401565700,8.923565673828126,-0.007955927440524101,0.05192262280313298,0.05135845871488563
1760554535411570000,8.93356982421875,-0.0156722009062767,0.05528393419608473,0.0482791608673986
1760554535421574000,8.943573974609375,0.0010094693034887314,0.035949667118303476,0.06832712917248718
1760554535431579000,8.953578857421874,-0.005811901149153709,0.0035447599347680804,0.09113379420172422
1760554535441582600,8.96358251953125,0.02535714409649372,-0.06426955174421892,0.11027315976191311
1760554535451587600,8.973587646484376,0.021038696375489233,-0.07097633764017373,0.09612641485724598
1760554535461591800,8.983591796875,0.036595746469497675,-0.0955146213681437,0.13266098745772614
1760554535471595800,8.993595703125,0.044801849278807634,-0.1203157572833821,0.07748165528043173
1760554535481600800,9.003600830078126,0.03324175986647606,-0.11495154510280117,0.039123045590566466
1760554535491604700,9.013604736328125,0.04036825074553489,-0.09978493736479431,0.027279883186845107
1760554535501609700,9.023609619140625,0.02967792990505695,-0.08078801248259843,0.045301341499853875
1760554535511614000,9.033614013671874,0.024818799436092377,-0.06800411689635366,0.02654391532880254
1760554535521618000,9.043617919921875,0.02579670455753803,-0.03048153790552169,0.015138961679255589
1760554535531623000,9.053622802734376,0.010472878697514534,0.002696399477124214,0.019051139287464318
1760554535541626600,9.063626708984375,0.006084288349747657,0.020607045226264744,0.004850444839010015
1760554535551631600,9.073631591796875,-0.0029302082329988478,0.030739933113381263,0.0054673254951834675
1760554535561635800,9.0836357421875,-0.00907879399061203,0.08224376424886286,0.01691302214707248
1760554535571639800,9.093639892578125,-0.010723638588190079,0.08152993515739217,-0.012070413554646074
1760554535581644800,9.103644775390626,-0.0042763621449470515,0.047028073960915205,0.0016950038822367787
1760554535591648800,9.113648681640624,-0.009640519526600838,0.046107872109767044,0.021563825361290947
1760554535601653800,9.12365380859375,-0.002280219891667366,0.04866636095354333,0.0243065755976364
1760554535611658000,9.133657958984376,0.01720247921347618,0.025073523115832358,0.054897035504039376
1760554535621661700,9.14366162109375,0.02336158636510372,0.002620046305283904,0.04062862784792669
1760554535631666700,9.153666748046875,0.034012159717082976,-0.03279710310520604,0.01400437729191035
1760554535641670700,9.163670654296874,0.005903086563944816,-0.028215036011952906,0.016909816409833727
1760554535651675600,9.173675537109375,0.006372457641363144,-0.015781908358447252,0.05179381792484782
1760554535661679900,9.183679931640626,0.014327800559997557,-0.023339593729004262,0.037615645835455506
1760554535671683800,9.193683837890624,0.016895020699501037,-0.015615173489414155,0.05612402001572773
1760554535681688800,9.203688720703125,0.0032990415453910825,-0.008673921250458806,0.07763174954191782
1760554535691692800,9.21369287109375,0.01139934589266777,-0.002607625215128064,0.07559263579659163
1760554535701697800,9.22369775390625,0.01575111136138439,-0.01799874415770173,0.061148743709409606
1760554535711701800,9.23370166015625,0.0230967979490757,-0.014520802381448447,0.06805833130162209
1760554535721705700,9.243705810546874,0.01593231314718723,-0.01011208256110549,0.058213238246785474
1760554535731710700,9.253710693359375,0.00921907924413681,0.00952509471969679,0.037059509790036825
1760554535741714700,9.263714599609376,0.027641455641388892,-0.013602271897578611,0.004731905626412481
1760554535751719700,9.2737197265625,0.01044774425625801,-0.031752416357863696,0.04324880201737396
1760554535761723600,9.2837236328125,0.0162953012406826,-0.021104455088078976,0.05502458914015442
1760554535771728000,9.293727783203124,0.021691022804379463,-0.0294840056349989,0.04621873033940792
1760554535781732900,9.30373291015625,0.0143652099609375,-0.04287536559510045,0.07329920023032464
1760554535791736800,9.31373681640625,0.007338087803125381,-0.0201735035140533,0.051160853783553464
1760554535801741800,9.323741943359375,0.00030804303586483,-0.038136573570175095,0.06214623944731429
1760554535811745800,9.333745849609375,0.028586043015122412,-0.048556690033990886,0.011312023802241309
1760554535821749800,9.343749755859376,0.020955694267153737,-0.027723334371717645,-0.003531261132378131
1760554535831754800,9.353754638671875,0.017220014870166778,-0.04450445550112053,-0.004939611826650798
1760554535841758700,9.3637587890625,0.02246843691766262,-0.023093720076000315,-0.029272938433894887
1760554535851762700,9.3737626953125,0.019496727630496025,0.00044304019291885197,0.010084701363835484
1760554535861767700,9.383767578125,0.0014139584511518477,0.016268394967447964,0.021532197247166186
1760554535871772000,9.39377197265625,-0.0009527706801891326,0.007023669825401157,0.05373782813209109
1760554535881777000,9.40377685546875,-0.0024181670576334,0.048452398542454464,0.05745707698408514
1760554535891780900,9.41378076171875,-0.016443185278773306,0.06385946397283114,0.0831743230972439
1760554535901785900,9.423785888671874,-0.010409750333428383,0.05439415488266386,0.03993350345692597
1760554535911789800,9.433789794921875,-0.01424713653922081,0.0462405220461078,0.05502529239305295
1760554535921793800,9.443793701171876,0.0058615855097770685,0.03462159685231745,0.026517611843766643
1760554535931798800,9.453798828125,0.010704933887720107,0.0100512283524964,-0.004510408362839371
1760554535941802800,9.463802734375,0.0014864391654729843,0.016241178166959434,-0.012855937909148633
1760554535951806700,9.473806640625,0.02159574573636055,-0.0006827854992356151,-0.014389860345004125
1760554535961811700,9.483811767578125,0.028832126730680464,-0.01766631559925154,0.02760334298755042
1760554535971816000,9.49381591796875,0.021396423771977424,-0.03871499451263807,-0.009699108712887391
1760554535981821000,9.503821044921875,0.03101473146677017,-0.038425656177243216,0.022939114036178217
1760554535991825000,9.513824951171875,0.03463701361715794,-0.05183878044458106,0.04256530413208529
1760554536001830000,9.523829833984376,0.023733926808834075,-0.05907077752472832,0.04332318242783658
1760554536011833600,9.53383349609375,0.030633623194694516,-0.05866300044143572,0.04405255614831112
1760554536021837800,9.543837890625,0.02076514013111591,-0.05209568694825284,0.03476923429523594
1760554536031842800,9.5538427734375,0.022116554740071296,-0.027669046901213003,0.03993861802346073
1760554536041846800,9.5638466796875,0.019727029255032537,-0.011863931197114288,0.04471884717047214
1760554536051850800,9.573850830078126,0.01943067665696144,0.012024829980405046,0.05951685905810445
1760554536061855700,9.583855712890625,0.011650690305233,-0.010835528864292428,0.06396428518733009
1760554536071859700,9.593859619140625,0.017038813084363936,-0.014964006971148773,0.05862615729607641
1760554536081865000,9.603864990234374,0.014643442380428313,-0.028892277686391025,0.04748107842542231
1760554536091869000,9.613868896484375,0.011347323444485663,-0.03624764541788027,0.0345363936537411
1760554536101872600,9.62387255859375,0.008643909704685211,-0.045365757638728244,0.0052088480889331545
1760554536111877600,9.633877685546874,0.025989596781134605,-0.049541645950730885,0.048283243387471884
1760554536121881600,9.643881591796875,0.02836684730648994,-0.024556339974468572,0.03168855734141543
1760554536131886800,9.653886962890626,0.0273012639015913,0.0059874769117683165,0.03063141297129914
1760554536141890800,9.663890869140625,0.02728898894190788,-0.011674774433718994,0.020908603722415865
1760554536151894800,9.673894775390625,0.010372925454378127,0.016096152806235477,0.011638515810249373
1760554536161899800,9.683899658203124,-0.004890110129117965,0.037109623408922925,0.011466912969853728
1760554536171903700,9.69390380859375,-0.005185878205299377,0.016233414985612035,-0.00890469779903069
1760554536181908700,9.70390869140625,0.008587211081385613,0.0032667741104494778,0.0139687671224121
1760554536191913000,9.713912841796875,0.0066501055389642716,0.015092419123789294,0.04866152951479889
1760554536201916700,9.723916748046875,-0.0027718028008937834,0.018966611942322922,0.07517668453999794
1760554536211921700,9.733921630859374,0.008900514814257621,0.01743990469854325,0.08893205550690181
1760554536221925600,9.743925537109375,0.01054360584616661,0.0035198629555292424,0.08942232324187643
1760554536231930600,9.7539306640625,0.01622515861392021,-0.013343885822873562,0.06373554533221759
1760554536241934800,9.763934814453124,0.016069091269373892,-0.016771677447622643,0.039434029502188786
1760554536251938800,9.773938720703125,0.01591360844671726,-0.024920487978588788,0.03739741824120283
1760554536261943800,9.78394384765625,0.03011982845366001,-0.021901121891103683,0.06307787600792944
1760554536271947800,9.79394775390625,0.018283260187506676,-0.031098162833368404,0.0686440770340152
1760554536281952800,9.803952880859375,0.02784194664955139,-0.03492903709998354,0.0634639070502948
1760554536291956500,9.81395654296875,0.02288227841556072,-0.025367702023126184,0.05201265744045377
1760554536301960400,9.82396044921875,0.018817513194680214,-0.03372343330304138,0.04372211861754767
1760554536311965400,9.83396533203125,0.006817863321304321,-0.008255942433560266,0.038132993373600765
1760554536321969400,9.843969482421874,-0.00009527706801891326,-0.008234744381904602,0.039805675826175134
1760554536331974400,9.853974365234375,0.015886135917901993,0.003725505062844604,0.032489160534041
1760554536341978600,9.863978515625,-0.004043137910962105,0.013417955706082283,0.03747138765971176
1760554536351982600,9.873982666015625,0.004608955100178718,0.005213323334651068,0.024978666172921656
1760554536361987600,9.883987548828125,-0.0008007949888706207,0.023502054281719028,0.01591060363887809
1760554536371991600,9.893991455078124,0.011455459994077682,0.026660518312640488,0.04254322016444057
1760554536381996500,9.90399658203125,-0.001572363883256912,0.022398687016544863,0.020209451610269023
1760554536392000500,9.91400048828125,0.003062310180068016,0.03993070871164091,0.007578079704614355
1760554536402004500,9.92400439453125,0.003516483688354492,0.019816634634090585,-0.03240018534264527
1760554536412009500,9.934009521484375,0.006673486414551734,0.019728490559756756,-0.02680943439719267
1760554536422013400,9.944013427734374,0.0077425769507884976,0.00676162135573104,-0.03172367432056926
1760554536432018400,9.954018310546875,0.015545359656214713,-0.012144026780128478,0.0011195694813039153
1760554536442022700,9.964022705078126,0.001654196947813034,-0.009103745768778026,0.015969612950272858
1760554536452026600,9.974026611328124,0.00795768100619316,-0.006078059538360684,0.03589781820005737
1760554536462031600,9.984031494140625,0.026077275064587593,-0.013997326496616004,0.05627751181069761
1760554536472035300,9.994035400390626,0.01470890883207321,-0.007720849176170304,0.08129882068210281
1760554536482039600,10.00403955078125,0.014403788405656814,-0.024525515577942133,0.0783727132354863
1760554536492044500,10.01404443359375,0.022169746232032776,-0.03757005312805995,0.0672050115410704
1760554536502048500,10.024048583984374,0.0031429742008447646,-0.0431928797122091,0.055835193136986344
1760554536512053500,10.034053466796875,0.014340075519680976,-0.03543062994657084,0.02856092684017494
1760554536522057500,10.044057373046876,0.016107669714093206,-0.03851224761530757,0.03777048020414076
1760554536532061700,10.054061767578125,0.020271219134330748,-0.02074566824566573,0.018846757555473596
1760554536542066700,10.064066650390625,0.011119944429397583,-0.01017881852122955,0.029480288441106676
1760554536552070700,10.074070556640624,0.008701192849874495,-0.008468461806233972,0.045490406931703906
1760554536562075600,10.08407568359375,0.014065934753417967,-0.012270995894353836,0.03939620910929516
1760554536572079400,10.094079345703125,0.012850129222869872,0.015409677512571215,0.03258632816504687
1760554536582083600,10.10408349609375,-0.004368132081627845,0.021123552514193577,0.031297676593996585
1760554536592088600,10.114088623046875,0.009542319849133491,0.02018454549787566,0.01445801194407977
1760554536602092500,10.124092529296876,0.005951601880788803,0.009926624725293367,-0.017054860036866737
1760554536612097500,10.13409765625,0.008497779232263565,-0.0072522270174231376,-0.033526869551325215
1760554536622101500,10.1441015625,0.021812603357434273,-0.015422619192535058,0.010750106470007448
1760554536632105500,10.15410546875,0.018059388303756713,-0.0312608425817918,0.022310387678584082
1760554536642110500,10.1641103515625,0.01953998225033283,-0.034606508881039916,0.026902373377652836
1760554536652114700,10.17411474609375,0.02685118204653263,-0.027634304381394758,0.03992789570004679
1760554536662119700,10.18411962890625,0.005876198557019234,-0.02142512927665375,0.04494681984060444
1760554536672123400,10.194123291015625,-0.004628828844428062,-0.01419276687032543,0.044112953699193894
1760554536682127400,10.20412744140625,0.006259060394763946,-0.004286801340570673,0.07039438216690905
1760554536692132400,10.21413232421875,0.00981470704972744,0.019268170438474043,0.06723748903856612
1760554536702136600,10.224136474609375,0.01936170307397842,0.030528601050795984,0.06419455941240303
1760554536712141600,10.2341416015625,0.005417348873615265,0.028199610113957895,0.07759885191931389
1760554536722145500,10.2441455078125,-0.00822831464111805,0.02285844088224694,0.06361258567282929
1760554536732149500,10.2541494140625,0.0013116671204566955,-0.0003539371373597532,0.05994553279895335
1760554536742154500,10.264154541015625,0.019368132814764974,-0.03609296631282195,0.06343190447683446
1760554536752158700,10.27415869140625,0.008687748846411705,-0.01930754346763715,0.05966921834191307
1760554536762163700,10.284163818359374,0.02957914570569992,-0.016111505638994276,0.052844505154713985
1760554536772167400,10.29416748046875,0.03041910366117954,-0.02045850360104814,0.04036837860969826
1760554536782171400,10.30417138671875,0.03276011382937431,-0.02859952355120331,0.004366469847504049
1760554536792176400,10.31417626953125,0.01760287670791149,-0.012930153922829776,-0.01940024498607963
1760554536802180600,10.3241806640625,0.010380524238944052,-0.0038078495840542016,0.0044854565846733745
1760554536812184600,10.3341845703125,0.012605214551091194,-0.014845696087414397,-0.058843343710713085
1760554536822189600,10.344189453125,0.021734861946105955,0.02821249699499458,-0.026811598954815417
1760554536832193500,10.354193603515625,-0.003537526476383209,0.042846532226260746,-0.006365717373322695
1760554536842198500,10.364198486328124,-0.020124504140019414,0.041191330631449814,0.017537866913992912
1760554536852202500,10.374202392578125,-0.008122516179084778,0.05267894846261479,0.03974334204653278
1760554536862206500,10.38420654296875,-0.01243628772497177,0.039131037100777026,0.05357881077863276
1760554536872211500,10.39421142578125,0.006587561696767806,0.030207141410931945,0.0826790686598979
1760554536882215400,10.40421533203125,0.0016588731229305266,0.000057611938752233976,0.062372796478494995
1760554536892220400,10.414220458984374,0.022763620471954345,-0.006385298856627196,0.0652932139698416
1760554536902224600,10.424224609375,0.004804185411334038,-0.0017509992526378482,0.06489104464342817
1760554536912228600,10.434228515625,0.030821839243173596,-0.04230933834332973,0.037513902494031935
1760554536922233600,10.444233642578125,0.023461539608240125,-0.047785796993039545,0.05673077200353145
1760554536932237600,10.454237548828125,0.012498831567168234,-0.042477297055069356,0.06340482467366382
1760554536942242600,10.46424267578125,0.02560848850905895,-0.07977568450174294,0.045319406879507
1760554536952246500,10.47424658203125,0.028387305572628974,-0.060484553312789645,0.04725117865968495
1760554536962250500,10.48425048828125,0.029219664743542668,-0.03926907559828832,0.03107035237783566
1760554536972255500,10.49425537109375,0.046965164792537685,-0.03859166952706873,0.004656027378607541
1760554536982259500,10.504259521484375,0.009804185655713081,-0.014964755889819934,-0.02299489021087065
1760554536992264400,10.514264404296876,0.019341244807839393,0.011573332486394793,-0.010527787222526968
1760554537002268700,10.5242685546875,0.0033007951110601425,0.018603706047218293,0.0040304062935523684
1760554537012272600,10.534272705078125,-0.0004559270739555359,0.030377730471175163,0.014403130818530917
1760554537022277600,10.544277587890624,0.012410568761825561,0.03387411208641715,0.008830280855949968
1760554537032281600,10.554281494140625,-0.0010474632263183592,0.04371971659790724,0.0082705098150298
1760554537042286600,10.56428662109375,-0.012998013260960579,0.03309231405896135,0.008274455337785184
1760554537052290600,10.57429052734375,0.01037584806382656,0.020859220755891875,-0.006381207203399389
1760554537062294500,10.58429443359375,0.021481179445981977,0.007871500560082494,0.013480663945060223
1760554537072299500,10.594299560546874,0.012982815691828726,-0.013814864335488527,0.03994876495813951
1760554537082303500,10.604303466796875,0.020336101064085958,-0.012932309347297995,0.07000679848827421
1760554537092307500,10.614307373046875,0.02572130123376846,-0.05262498065251857,0.08552722463263199
1760554537102312400,10.6243125,0.049044893676042554,-0.05959218931663781,0.0907991371535696
1760554537112316700,10.634316650390625,0.04062894750833511,-0.05570026904516853,0.0794758156391792
1760554537122321700,10.64432177734375,0.010351882666349411,-0.042660599466413256,0.06304539851043373
1760554537132325400,10.654325439453125,0.02585515674650669,-0.054789848802518096,0.03608180559799075
1760554537142329300,10.664329345703125,0.01651625051498413,-0.052868552750581874,0.04362582776937633
1760554537152334300,10.674334228515624,0.006281272226572036,-0.01202029080260545,0.0381364365728572
1760554537162338600,10.684338623046875,0.016838906598091126,-0.046835291335172946,0.035666447996441274
1760554537172343600,10.694343505859376,0.020362989071011542,-0.06710900382068939,0.08362106221774593
1760554537182347500,10.704347412109374,0.006842997762560844,-0.03358546787076629,-0.023706289883237332
1760554537192351500,10.7143515625,0.015336100819706915,0.01958535576201975,-0.031194800741411743
1760554537202356500,10.7243564453125,0.0236935947984457,0.04598680301336571,-0.029821630958374586
1760554537212360700,10.734360595703125,0.008276829957962036,0.039644932306511324,-0.021707371150981633
1760554537222365700,10.74436572265625,-0.003384381741285324,0.03984851032090373,-0.03240156444897875
1760554537232369400,10.754369384765624,0.002918517795205116,0.031207614557212215,0.0023201135106384755
1760554537242373400,10.764373291015625,0.008773673564195632,0.02002935493616387,0.020487729695532468
1760554537252378400,10.77437841796875,0.010149053570628166,0.01638601173143834,0.02012960044024512
1760554537262382600,10.784382568359375,0.01945581109821796,0.005667058451520279,0.0063330937453545625
1760554537272386600,10.794386474609375,0.005119242709875106,0.02934249653876759,0.01706529923249036
1760554537282391600,10.8043916015625,0.009630582654476165,0.012582016338594256,0.031853410780616105
1760554537292395500,10.8143955078125,0.022525135540962218,-0.001077940562972799,0.011101404125709086
1760554537302400500,10.824400390625,0.02614449508190155,-0.0025407522576861084,0.0021606120999902484
1760554537312404700,10.83440478515625,0.018985855498909947,-0.017975746874604372,0.003309581205714494
1760554537322408700,10.84440869140625,0.03396656700968742,-0.04303043742580339,0.02327483966341242
1760554537332413700,10.85441357421875,0.021560674422979355,-0.041880874665034935,0.037032092060148715
1760554537342417700,10.864417724609375,0.01902326489984989,-0.029485092480387536,0.034607093402929605
1760554537352422700,10.874422607421875,0.006291793620586395,-0.03683815865693613,0.040433187474217265
1760554537362427000,10.884427001953124,0.0035708442240953444,-0.014140187299717217,0.07132127862032503
1760554537372430800,10.894430908203125,0.017454992669820785,-0.0007475852306000888,0.09324569005547091
1760554537382435800,10.904435791015626,0.013522329396009444,0.006235898714885116,0.0328316081630066
1760554537392439600,10.914439453125,0.016017653343081473,-0.010374569422192871,0.084716255309619
1760554537402444500,10.924444580078125,0.007146949145197868,0.00448987703146413,0.02458984951842576
1760554537412448800,10.93444873046875,0.003678396251797676,0.013612729359511286,0.029958646542578935
1760554537422452700,10.94445263671875,-0.012789923468232154,0.028301983643043784,0.0015781177706085145
1760554537432457700,10.954457763671876,0.006530863073468208,0.03569797564586624,-0.030731000888254492
1760554537442461700,10.964461669921874,0.02018354085087776,0.027024383188970387,-0.02084783171219751
1760554537452465700,10.974465576171875,-0.013593056544661522,0.013661664801463485,-0.0018853022899478673
1760554537462470700,10.984470703125,-0.003975333371758461,-0.009963997593615204,0.028650303890369832
1760554537472474600,10.994474609375,0.016709142738580703,-0.0015166699069552123,0.03700940530430525
1760554537482479900,11.00447998046875,0.004012158250808716,-0.013810973611660301,0.060149786666780704
1760554537492483600,11.014483642578124,0.02497545130252838,-0.03865909047378227,0.027808427972439674
1760554537502487600,11.024487548828125,0.01825344957113266,-0.03814372483016923,0.0043732831807807085
1760554537512492500,11.034492431640626,0.02709551219642162,-0.006730020641069859,-0.0011048011704348026
1760554537522496800,11.044496826171875,0.009743395379185676,-0.0253384576623328,-0.005484130499511957
1760554537532501800,11.054501708984375,-0.0004214402824640274,-0.0218465421596542,0.02095556640299037
1760554537542505700,11.064505615234374,0.004080547311902046,-0.00015962927481159568,0.016821644936036318
1760554537552509700,11.074509765625,-0.0072808046579360955,0.03570895369760692,0.04966680670036003
1760554537562514700,11.0845146484375,0.018317162457108495,0.004837448360119015,0.03645027358420193
1760554537572518700,11.0945185546875,-0.00022270283997058866,0.013137166003324091,0.028880989107396452
1760554537582522600,11.104522705078125,-0.0033422961652278898,0.021312855408061295,0.018465046495199203
1760554537592527600,11.114527587890626,0.0019224924951791761,0.01709434266388416,0.01827946079522371
1760554537602531600,11.124531494140625,0.0082435122102499,-0.005676629997463897,-0.0002651537422090769
1760554537612536600,11.13453662109375,0.013827449822425841,0.015936039474233984,0.022042283927462995
1760554537622540800,11.144540771484374,0.013869535398483275,0.024537744871852916,0.03031838323306292
1760554537632544800,11.154544677734375,0.02856558474898338,-0.033956465740781275,0.027039982616901395
1760554537642549800,11.1645498046875,0.022304770788550376,-0.020221790502034126,0.03581831408990547
1760554537652553700,11.1745537109375,0.01288636958003044,-0.026079521820601075,0.03898328092684969
1760554537662558700,11.184558837890625,0.04265665394365787,-0.049614829917950555,0.04657711532302201
1760554537672562700,11.194562744140624,0.0065723641276359554,-0.04990254255183972,0.03953322469349951
1760554537682566700,11.204566650390625,0.040212183400988574,-0.03355554765653796,0.02411443229271099
1760554537692571600,11.214571533203125,0.016540800434350966,-0.015584394758660346,0.010959493170678614
1760554537702575600,11.22457568359375,0.008587795603275298,-0.019016816892754286,-0.0014093736075796186
1760554537712579800,11.234579833984375,0.016506313642859458,0.014425972838001325,-0.006260558232106268
1760554537722584800,11.244584716796876,0.007082651737332343,0.03345407830975018,0.010217753158975391
1760554537732588800,11.2545888671875,0.009046645286679268,0.02014781195037067,-0.00031520342901349065
1760554537742593800,11.26459375,0.01146948851943016,0.014393860666686667,0.0007527545960620046
1760554537752597800,11.27459765625,0.002377250525355339,0.036943893186887726,0.0019841230219230055
1760554537762601700,11.284601806640625,0.008098550781607627,0.022557037649722767,0.033502474895585325
1760554537772606700,11.294606689453126,0.01635726056098938,0.00874192671906203,0.04152553102187812
1760554537782610700,11.304610595703124,0.01234042613506317,-0.0067269610343035306,0.04955936427051201
1760554537792615700,11.31461572265625,0.015789105284214018,-0.010948926110891625,0.060900805963482706
1760554537802619600,11.32461962890625,0.011595160725712775,-0.02778392371884547,0.08005052852090448
1760554537812623600,11.33462353515625,0.01592412984073162,-0.028049278390454128,0.06155698658358305
1760554537822628900,11.34462890625,0.020393384209275243,-0.023682114423206075,0.037667102028056974
1760554537832632800,11.3546328125,0.014379238486289978,-0.053927861678320914,0.05173809654908255
1760554537842636500,11.364636474609375,0.02706511705815792,-0.06030490416325628,0.03385335242617875
1760554537852641500,11.3746416015625,0.018206687819957733,-0.04081756541561335,0.042086416307650504
1760554537862645500,11.3846455078125,0.013092705807089804,-0.041254057136736806,0.02942616536738351
1760554537872650500,11.394650390625,0.02713876681625843,-0.0032255379177629946,0.012763967043068258
1760554537882654700,11.40465478515625,0.008570259946584701,0.017336736585013567,0.02536640511518344
1760554537892658700,11.41465869140625,0.0022813889354467392,0.010093231730163096,0.019773717940971255
1760554537902663700,11.42466357421875,0.026220482927560806,0.008912004322651773,0.0038383543201722203
1760554537912667600,11.434667724609374,0.00827449187040329,0.020790402436535804,0.018542970569618046
1760554537922672600,11.444672607421875,0.0005061959564685822,0.025788009794428943,0.01498082110863179
1760554537932676900,11.4546767578125,0.00815115775167942,0.003327317791804671,0.0023244426258839665
1760554537942680600,11.4646806640625,0.00786532654762268,0.009392061190865933,0.024626893593184648
1760554537952685600,11.474685546875,0.00623626404106617,0.026296653436310588,0.004300619803369045
1760554537962689500,11.484689453125,0.0010164835661649703,0.015480587324313818,0.012446462059114127
1760554537972693800,11.49469384765625,-0.008686579802632332,0.008997307985927908,0.011716960474476217
1760554537982698800,11.50469873046875,0.017070377266407012,0.003922525472287088,0.018750914231874048
1760554537992702700,11.51470263671875,0.004958499190211295,-0.014544767778925596,0.034600480999052524
1760554538002707700,11.524707763671875,0.017974048107862472,-0.026792218400910495,0.038398028384801
1760554538012711700,11.534711669921874,0.029489129334688186,-0.026389263623207804,0.036675058783404525
1760554538022716000,11.5447158203125,-0.002847790646553039,-0.03946342912660911,0.03892095628036186
1760554538032721000,11.554720947265626,0.027354455393552777,-0.020115133523475378,0.06430022087711841
1760554538042724600,11.564724609375,0.015655249771475793,-0.0055277321792207654,0.04166943300459534
1760554538052729600,11.5747294921875,0.011437339815497398,-0.019454276728257537,0.02660613951059058
1760554538062733600,11.584733642578126,0.02921265048086643,-0.030234486075583843,0.012382438645884394
1760554538072737800,11.59473779296875,0.015871522870659828,-0.0273474959298037,0.039277423301525415
1760554538082742800,11.60474267578125,0.003740355572104454,-0.00019276435943320393,-0.059693914391752326
1760554538092746800,11.614746826171874,0.032766543570160865,0.010360632228385656,-0.020549031428713352
1760554538102750700,11.624750732421875,0.00031330373287200925,0.04988293366907164,0.020700751391705123
1760554538112755700,11.634755615234376,-0.0036930092990398403,0.04797109043207019,0.012798417301941662
1760554538122759700,11.644759765625,0.005919453176856041,0.02004480823362246,0.004208466274198144
1760554538132764700,11.6547646484375,0.005056114345788955,0.0016069785389117896,0.008576790152071044
1760554538142768600,11.6647685546875,0.026335049217939374,-0.00952584363836795,0.00954502326287329
1760554538152772600,11.674772705078125,0.027249241453409193,-0.04683952911887317,0.013558834614651277
1760554538162777600,11.684777587890625,0.029637597894668577,-0.07819490898316725,0.02278634376041591
1760554538172781800,11.69478173828125,0.025277064597606657,-0.06862002030499278,0.03399787546340376
1760554538182785800,11.704785888671875,0.026139818906784056,-0.052785157916601745,0.03611555260396562
1760554538192790800,11.714790771484376,0.01471943022608757,-0.038319008331838995,0.060975551700126376
1760554538202794800,11.724794677734375,0.010313888743519782,-0.031225908265728502,0.09121084149330853
1760554538212799700,11.7347998046875,0.019514847809076308,-0.014185158952604979,0.07542482321532443
1760554538222803700,11.7448037109375,0.008668459624052048,0.001797350011859089,0.04712850212808698
1760554538232807700,11.7548076171875,0.009498480707406998,0.02219868006557226,0.039430942495958875
1760554538242812700,11.764812744140626,0.005403320348262786,0.03168530593840405,0.016691205223090946
1760554538252816600,11.774816650390624,0.0035620763957500455,0.03621505832253024,-0.007908069710806011
1760554538262821600,11.784821533203125,0.006067337214946746,0.02189726769989356,0.01536444099820219
1760554538272825600,11.79482568359375,0.0013987608820199965,0.022960787011869252,0.020266816953849045
1760554538282829800,11.804829833984375,-0.00341243879199028,0.022266265409067273,-0.009023218745319172
1760554538292834800,11.814834716796875,0.01572422335445881,0.0113330574571155,-0.0009873762026894838
1760554538302839300,11.82483935546875,0.009575637596845626,0.024170473328884688,0.003100952556869015
1760554538312843300,11.83484326171875,0.003728665134310722,-0.00009704889999702573,-0.017059846739238126
1760554538322848300,11.84484814453125,-0.00002104278802871704,-0.009134067841805517,-0.027376174035016444
1760554538332852500,11.8548525390625,0.009096914169192314,0.006419895245973021,-0.005815581810427829
1760554538342857500,11.864857421875,-0.0045317982107400895,-0.0038081053123809397,0.01096566718313843
1760554538352861200,11.874861083984374,0.008625789526104927,0.008354169510491193,0.02428105756388977
1760554538362865200,11.884865234375,-0.0021598083823919294,0.012483524400182067,0.04353151881573721
1760554538372870100,11.8948701171875,-0.002467266896367073,0.015053100893553346,0.06807348320498131
1760554538382874400,11.904874267578125,-0.01578501363098621,0.032354857496730983,0.03319587489813566
1760554538392879400,11.91487939453125,0.018040099081397056,0.0331745398491621,0.028634695329284292
1760554538402883300,11.92488330078125,0.017001988205313682,0.005219944871682674,0.04394258383465931
1760554538412887300,11.93488720703125,0.0063946694731712335,0.0014090265477076172,0.02235372449681163
1760554538422892300,11.944892333984376,0.01523614757657051,-0.0024142215348780154,0.030404819407500325
1760554538432896300,11.954896240234374,0.018981179323792455,-0.025586587204504758,0.04932347315540537
1760554538442900200,11.964900146484375,0.018229484173655507,-0.044834929564502086,0.051623073600977655
1760554538452905200,11.9749052734375,0.03153495594859123,-0.03870718566551804,0.051582759856898336
1760554538462909200,11.9849091796875,0.014303835162520408,-0.02756716656247154,0.016592256626952438
1760554538472912400,11.994912353515625,0.022655483922362326,-0.01740392006970942,0.023217976643331348
1760554538482916400,12.004916259765626,0.014402619361877441,-0.016953363290615378,0.039353118886239824
1760554538492921300,12.01492138671875,0.010787935996055603,-0.00291908405078575,0.03367247943393886
1760554538502925000,12.024925048828125,0.0059796589314937585,0.02466234849905595,0.028759646016359327
1760554538512929300,12.03492919921875,-0.008996960926055907,0.012475359360035508,0.0237178889894858
1760554538522934300,12.044934326171875,-0.0024245967984199523,0.017356299802009017,0.0479741774383001
1760554538532938200,12.054938232421875,0.008637479963898659,0.018128398419357834,0.050591264601517465
1760554538542943200,12.064943115234374,-0.0048363341152668,0.01964799093576148,0.027422552193701266
1760554538552947200,12.074947265625,0.029125556719303128,0.033470654985215516,0.010355590727087109
1760554538562951400,12.084951416015626,0.009525953236222266,0.008776121249608694,0.00003775646081194281
1760554538572956400,12.094956298828125,0.0031038112342357633,0.013697265837807207,-0.014134122885111719
1760554538582960400,12.10496044921875,0.012095511463284492,0.008893281355872749,-0.0034098632424138485
1760554538592964000,12.114964111328124,0.016595160970091817,-0.004974043819215148,0.0022769502223469315
1760554538602969000,12.124968994140625,0.020495675539970396,-0.0240628665022552,0.024468561226315796
1760554538612973300,12.134973388671876,0.01975567082762718,-0.024493184210918843,0.04442570944279432
1760554538622978300,12.144978271484375,0.0023965397477149963,-0.035250597204547374,0.044838272299058735
1760554538632982300,12.154982177734375,0.022132921352982518,-0.018915146616566927,0.028560890307556836
1760554538642986200,12.164986328125,0.015226210704445837,-0.022400888106785713,0.027884032225608823
